SID,CB,block,trial,eye,loc,locrep,eyerep,tarimg,urban,resp,corr,RT
1,1,1,1,2,4,99,99,3,1,1,1,1094.723775
1,1,1,2,2,3,0,1,5,1,1,1,877.78534
1,1,1,3,1,3,1,0,1,1,1,1,638.8976071
1,1,1,4,2,3,1,0,10,2,2,1,625.9347526
1,1,1,5,2,1,0,1,8,2,2,1,677.6540866
1,1,1,6,2,1,1,1,9,2,2,1,518.2603039
1,1,1,7,1,1,1,0,2,1,1,1,1006.179903
1,1,1,8,1,2,0,1,7,2,2,1,978.4716507
1,1,1,9,1,2,1,1,4,1,1,1,919.6881969
1,1,1,10,2,4,0,0,6,2,1,0,895.6723046
1,1,1,11,1,2,0,0,10,2,2,1,839.2606564
1,1,1,12,1,2,1,1,1,1,1,1,842.1233017
1,1,1,13,2,4,0,0,3,1,1,1,749.4414337
1,1,1,14,1,4,1,0,9,2,2,1,835.505778
1,1,1,15,2,1,0,0,4,1,1,1,614.2789861
1,1,1,16,1,3,0,0,5,1,1,1,986.3266936
1,1,1,17,2,3,1,0,2,1,1,1,1039.968671
1,1,1,18,1,1,0,0,3,1,1,1,1714.356796
1,1,1,19,2,1,1,0,5,1,1,1,466.0539767
1,1,1,20,1,1,1,0,6,2,2,1,955.5698475
1,1,1,21,1,4,0,1,7,2,2,1,1057.813637
1,1,1,22,1,4,1,1,8,2,2,1,1284.206592
1,1,1,23,2,2,0,0,6,2,2,1,1141.09164
1,1,1,24,2,2,1,1,1,1,1,1,804.0660527
1,1,1,25,2,3,0,1,7,2,2,1,848.4532451
1,1,1,26,1,2,0,0,9,2,2,1,1202.893872
1,1,1,27,1,3,0,1,10,2,2,1,806.8248229
1,1,1,28,2,3,1,0,8,2,2,1,779.3195117
1,1,1,29,2,4,0,1,4,1,1,1,696.6089718
1,1,1,30,2,4,1,1,2,1,1,1,681.946612
1,1,1,31,1,2,0,0,9,2,1,0,1210.685114
1,1,1,32,1,2,1,1,5,1,1,1,950.5203832
1,1,1,33,2,1,0,0,4,1,1,1,1053.191855
1,1,1,34,2,1,1,1,8,2,2,1,967.0483209
1,1,1,35,1,1,1,0,10,2,2,1,1796.721728
1,1,1,36,1,3,0,1,1,1,1,1,817.6088752
1,1,1,37,2,4,0,0,7,2,2,1,949.5992968
1,1,1,38,2,3,0,1,2,1,1,1,1019.509205
1,1,1,39,1,4,0,0,6,2,2,1,1167.051655
1,1,1,40,1,4,1,1,7,2,2,1,813.0537784
1,1,1,41,2,4,1,0,8,2,2,1,769.3818463
1,1,1,42,1,2,0,0,3,1,1,1,958.8848604
1,1,1,43,2,2,1,0,6,2,2,1,1021.135613
1,1,1,44,1,2,1,0,1,1,2,0,704.3841854
1,1,1,45,2,3,0,0,2,1,1,1,672.6940703
1,1,1,46,1,1,0,0,9,2,2,1,1114.273376
1,1,1,47,2,3,0,0,5,1,1,1,1202.696381
1,1,1,48,1,1,0,0,4,1,1,1,798.4404694
1,1,2,1,2,4,99,99,3,1,1,1,639.4028747
1,1,2,2,2,3,0,1,3,1,1,1,593.8050933
1,1,2,3,1,3,1,0,5,1,1,1,887.1282917
1,1,2,4,2,3,1,0,10,2,1,0,807.7766877
1,1,2,5,2,1,0,1,7,2,2,1,812.0833188
1,1,2,6,2,1,1,1,6,2,2,1,1120.407753
1,1,2,7,1,1,1,0,1,1,1,1,1007.61331
1,1,2,8,1,2,0,1,10,2,2,1,1276.278131
1,1,2,9,1,2,1,1,2,1,1,1,1069.908625
1,1,2,10,2,4,0,0,8,2,2,1,951.1372196
1,1,2,11,1,2,0,0,9,2,2,1,1133.715254
1,1,2,12,1,2,1,1,4,1,1,1,1260.321184
1,1,2,13,2,4,0,0,5,1,1,1,1174.652781
1,1,2,14,1,4,1,0,7,2,2,1,1732.634253
1,1,2,15,2,1,0,0,3,1,1,1,835.2977084
1,1,2,16,1,3,0,0,2,1,1,1,902.0545064
1,1,2,17,2,3,1,0,1,1,1,1,622.759521
1,1,2,18,1,1,0,0,5,1,1,1,930.3478552
1,1,2,19,2,1,1,0,3,1,1,1,753.9093271
1,1,2,20,1,1,1,0,6,2,2,1,799.715179
1,1,2,21,1,4,0,1,8,2,2,1,724.4778452
1,1,2,22,1,4,1,1,10,2,2,1,499.8186994
1,1,2,23,2,2,0,0,6,2,2,1,1060.155626
1,1,2,24,2,2,1,1,2,1,1,1,670.0994475
1,1,2,25,2,3,0,1,7,2,2,1,695.7269991
1,1,2,26,1,2,0,0,8,2,2,1,696.4948382
1,1,2,27,1,3,0,1,10,2,2,1,609.4728587
1,1,2,28,2,3,1,0,9,2,2,1,909.6312681
1,1,2,29,2,4,0,1,1,1,1,1,622.3077942
1,1,2,30,2,4,1,1,4,1,2,0,569.4031985
1,1,2,31,1,2,0,0,6,2,2,1,958.9015311
1,1,2,32,1,2,1,1,1,1,2,0,573.0013018
1,1,2,33,2,1,0,0,5,1,1,1,753.5669254
1,1,2,34,2,1,1,1,10,2,2,1,512.1086137
1,1,2,35,1,1,1,0,7,2,2,1,696.3989791
1,1,2,36,1,3,0,1,3,1,1,1,945.4789348
1,1,2,37,2,4,0,0,8,2,2,1,855.9434433
1,1,2,38,2,3,0,1,2,1,1,1,1354.376507
1,1,2,39,1,4,0,0,9,2,2,1,872.7551131
1,1,2,40,1,4,1,1,7,2,2,1,457.3288234
1,1,2,41,2,4,1,0,10,2,2,1,603.5593757
1,1,2,42,1,2,0,0,4,1,1,1,1263.854847
1,1,2,43,2,2,1,0,6,2,2,1,1306.167752
1,1,2,44,1,2,1,0,2,1,1,1,954.4275459
1,1,2,45,2,3,0,0,1,1,1,1,1008.607172
1,1,2,46,1,1,0,0,8,2,2,1,788.8923334
1,1,2,47,2,3,0,0,5,1,1,1,905.8808777
1,1,2,48,1,1,0,0,3,1,1,1,818.3898591
1,1,3,1,2,4,99,99,3,1,1,1,642.6329287
1,1,3,2,2,3,0,1,1,1,1,1,557.5217297
1,1,3,3,1,3,1,0,2,1,1,1,748.0699029
1,1,3,4,2,3,1,0,10,2,2,1,818.3677383
1,1,3,5,2,1,0,1,10,2,2,1,845.8166234
1,1,3,6,2,1,1,1,7,2,2,1,744.464105
1,1,3,7,1,1,1,0,4,1,1,1,751.7141728
1,1,3,8,1,2,0,1,8,2,2,1,1197.555226
1,1,3,9,1,2,1,1,5,1,1,1,986.943529
1,1,3,10,2,4,0,0,9,2,2,1,647.8987979
1,1,3,11,1,2,0,0,7,2,2,1,658.3693027
1,1,3,12,1,2,1,1,1,1,1,1,772.9068529
1,1,3,13,2,4,0,0,5,1,2,0,506.1794221
1,1,3,14,1,4,1,0,10,2,2,1,665.4863209
1,1,3,15,2,1,0,0,2,1,1,1,587.3873048
1,1,3,16,1,3,0,0,4,1,1,1,1295.286237
1,1,3,17,2,3,1,0,3,1,1,1,920.2514915
1,1,3,18,1,1,0,0,4,1,1,1,680.2346027
1,1,3,19,2,1,1,0,2,1,1,1,745.3733282
1,1,3,20,1,1,1,0,8,2,2,1,656.7028183
1,1,3,21,1,4,0,1,6,2,2,1,642.1440123
1,1,3,22,1,4,1,1,9,2,2,1,548.69687
1,1,3,23,2,2,0,0,6,2,2,1,939.2987117
1,1,3,24,2,2,1,1,1,1,2,0,570.0668423
1,1,3,25,2,3,0,1,10,2,2,1,742.8729627
1,1,3,26,1,2,0,0,9,2,2,1,989.45159
1,1,3,27,1,3,0,1,7,2,2,1,762.3414509
1,1,3,28,2,3,1,0,8,2,2,1,808.9465601
1,1,3,29,2,4,0,1,3,1,1,1,812.6353938
1,1,3,30,2,4,1,1,5,1,1,1,561.3881759
1,1,3,31,1,2,0,0,6,2,2,1,2287.452354
1,1,3,32,1,2,1,1,3,1,1,1,856.5567536
1,1,3,33,2,1,0,0,4,1,1,1,922.9368446
1,1,3,34,2,1,1,1,7,2,1,0,690.4768394
1,1,3,35,1,1,1,0,9,2,2,1,811.237894
1,1,3,36,1,3,0,1,1,1,1,1,839.4716112
1,1,3,37,2,4,0,0,8,2,2,1,1194.378071
1,1,3,38,2,3,0,1,2,1,1,1,870.9177496
1,1,3,39,1,4,0,0,10,2,2,1,768.6015032
1,1,3,40,1,4,1,1,6,2,2,1,742.3616033
1,1,3,41,2,4,1,0,7,2,2,1,493.1492405
1,1,3,42,1,2,0,0,5,1,1,1,982.3881108
1,1,3,43,2,2,1,0,10,2,2,1,875.1381384
1,1,3,44,1,2,1,0,1,1,1,1,980.4244312
1,1,3,45,2,3,0,0,4,1,2,0,809.988834
1,1,3,46,1,1,0,0,9,2,2,1,981.7247875
1,1,3,47,2,3,0,0,3,1,1,1,706.2305259
1,1,3,48,1,1,0,0,2,1,1,1,930.5049488
1,1,4,1,2,4,99,99,3,1,1,1,574.548522
1,1,4,2,2,3,0,1,2,1,1,1,1060.263348
1,1,4,3,1,3,1,0,4,1,1,1,726.6011853
1,1,4,4,2,3,1,0,10,2,2,1,637.7373524
1,1,4,5,2,1,0,1,7,2,2,1,945.0047649
1,1,4,6,2,1,1,1,6,2,2,1,639.5138018
1,1,4,7,1,1,1,0,1,1,1,1,730.5214927
1,1,4,8,1,2,0,1,8,2,2,1,698.1218876
1,1,4,9,1,2,1,1,3,1,1,1,650.600181
1,1,4,10,2,4,0,0,9,2,2,1,892.5172715
1,1,4,11,1,2,0,0,6,2,1,0,693.3218511
1,1,4,12,1,2,1,1,1,1,1,1,838.3277077
1,1,4,13,2,4,0,0,5,1,1,1,864.1242161
1,1,4,14,1,4,1,0,7,2,2,1,514.3948197
1,1,4,15,2,1,0,0,2,1,1,1,746.6986924
1,1,4,16,1,3,0,0,4,1,1,1,1513.693986
1,1,4,17,2,3,1,0,3,1,1,1,817.9445444
1,1,4,18,1,1,0,0,4,1,1,1,605.436814
1,1,4,19,2,1,1,0,5,1,1,1,954.1569594
1,1,4,20,1,1,1,0,10,2,2,1,680.2932722
1,1,4,21,1,4,0,1,8,2,2,1,609.5741689
1,1,4,22,1,4,1,1,9,2,2,1,445.9414016
1,1,4,23,2,2,0,0,10,2,2,1,897.1326426
1,1,4,24,2,2,1,1,2,1,1,1,866.0199288
1,1,4,25,2,3,0,1,7,2,1,0,531.4241769
1,1,4,26,1,2,0,0,9,2,2,1,873.9509545
1,1,4,27,1,3,0,1,8,2,2,1,643.3299147
1,1,4,28,2,3,1,0,6,2,2,1,854.6309033
1,1,4,29,2,4,0,1,3,1,1,1,952.5180468
1,1,4,30,2,4,1,1,1,1,1,1,727.0606058
1,1,4,31,1,2,0,0,9,2,2,1,814.3044421
1,1,4,32,1,2,1,1,4,1,1,1,1146.607898
1,1,4,33,2,1,0,0,1,1,1,1,977.8490439
1,1,4,34,2,1,1,1,8,2,2,1,743.0710942
1,1,4,35,1,1,1,0,10,2,2,1,798.3151143
1,1,4,36,1,3,0,1,2,1,1,1,1346.411819
1,1,4,37,2,4,0,0,6,2,2,1,793.6109379
1,1,4,38,2,3,0,1,3,1,1,1,958.1968505
1,1,4,39,1,4,0,0,7,2,2,1,788.4854907
1,1,4,40,1,4,1,1,10,2,2,1,625.151203
1,1,4,41,2,4,1,0,6,2,2,1,516.8996742
1,1,4,42,1,2,0,0,5,1,1,1,1028.488594
1,1,4,43,2,2,1,0,9,2,2,1,848.4253529
1,1,4,44,1,2,1,0,1,1,2,0,810.6011814
1,1,4,45,2,3,0,0,3,1,1,1,837.6018675
1,1,4,46,1,1,0,0,8,2,2,1,784.5020248
1,1,4,47,2,3,0,0,4,1,2,0,1005.712788
1,1,4,48,1,1,0,0,2,1,1,1,713.259059
1,1,5,1,2,4,99,99,3,1,1,1,526.5023112
1,1,5,2,2,3,0,1,1,1,1,1,878.4925854
1,1,5,3,1,3,1,0,5,1,2,0,1215.720152
1,1,5,4,2,3,1,0,10,2,2,1,842.7071152
1,1,5,5,2,1,0,1,9,2,2,1,749.4875994
1,1,5,6,2,1,1,1,7,2,2,1,571.4662652
1,1,5,7,1,1,1,0,4,1,1,1,833.5154876
1,1,5,8,1,2,0,1,10,2,2,1,1068.460471
1,1,5,9,1,2,1,1,3,1,1,1,837.9436275
1,1,5,10,2,4,0,0,6,2,2,1,887.8009124
1,1,5,11,1,2,0,0,7,2,2,1,769.1215184
1,1,5,12,1,2,1,1,5,1,1,1,726.1824803
1,1,5,13,2,4,0,0,1,1,1,1,565.8753058
1,1,5,14,1,4,1,0,8,2,2,1,627.0465963
1,1,5,15,2,1,0,0,3,1,1,1,622.6479514
1,1,5,16,1,3,0,0,2,1,1,1,1202.32256
1,1,5,17,2,3,1,0,4,1,1,1,1014.494366
1,1,5,18,1,1,0,0,1,1,1,1,554.4218393
1,1,5,19,2,1,1,0,4,1,1,1,584.6060924
1,1,5,20,1,1,1,0,9,2,2,1,726.0744376
1,1,5,21,1,4,0,1,10,2,2,1,669.4963975
1,1,5,22,1,4,1,1,6,2,2,1,990.727582
1,1,5,23,2,2,0,0,8,2,2,1,843.9901602
1,1,5,24,2,2,1,1,3,1,1,1,582.8722827
1,1,5,25,2,3,0,1,10,2,2,1,547.4359468
1,1,5,26,1,2,0,0,9,2,2,1,914.6271907
1,1,5,27,1,3,0,1,7,2,2,1,1522.688444
1,1,5,28,2,3,1,0,6,2,2,1,946.5365969
1,1,5,29,2,4,0,1,2,1,1,1,545.2215569
1,1,5,30,2,4,1,1,5,1,1,1,504.0785242
1,1,5,31,1,2,0,0,8,2,2,1,1136.482681
1,1,5,32,1,2,1,1,4,1,1,1,767.5162693
1,1,5,33,2,1,0,0,3,1,1,1,565.0680335
1,1,5,34,2,1,1,1,10,2,2,1,650.3215786
1,1,5,35,1,1,1,0,6,2,2,1,556.7115713
1,1,5,36,1,3,0,1,5,1,1,1,1091.185303
1,1,5,37,2,4,0,0,9,2,2,1,1267.776117
1,1,5,38,2,3,0,1,2,1,1,1,925.3795035
1,1,5,39,1,4,0,0,7,2,2,1,1085.178205
1,1,5,40,1,4,1,1,10,2,2,1,949.9378512
1,1,5,41,2,4,1,0,6,2,2,1,628.0590538
1,1,5,42,1,2,0,0,1,1,1,1,712.0619351
1,1,5,43,2,2,1,0,9,2,2,1,792.2862144
1,1,5,44,1,2,1,0,2,1,1,1,996.794953
1,1,5,45,2,3,0,0,1,1,2,0,562.0088587
1,1,5,46,1,1,0,0,8,2,2,1,903.0644
1,1,5,47,2,3,0,0,5,1,1,1,1943.90799
1,1,5,48,1,1,0,0,4,1,1,1,1222.401474
1,1,6,1,2,4,99,99,3,1,1,1,586.9391039
1,1,6,2,2,3,0,1,2,1,1,1,927.8151086
1,1,6,3,1,3,1,0,5,1,1,1,655.3614251
1,1,6,4,2,3,1,0,10,2,1,0,545.5697291
1,1,6,5,2,1,0,1,9,2,2,1,743.5792461
1,1,6,6,2,1,1,1,7,2,2,1,550.737815
1,1,6,7,1,1,1,0,4,1,1,1,636.6816144
1,1,6,8,1,2,0,1,10,2,2,1,1079.998896
1,1,6,9,1,2,1,1,1,1,1,1,777.5635803
1,1,6,10,2,4,0,0,8,2,2,1,870.7215413
1,1,6,11,1,2,0,0,9,2,2,1,944.3090623
1,1,6,12,1,2,1,1,2,1,1,1,815.285801
1,1,6,13,2,4,0,0,1,1,1,1,802.8179538
1,1,6,14,1,4,1,0,8,2,2,1,927.1194041
1,1,6,15,2,1,0,0,3,1,1,1,757.977752
1,1,6,16,1,3,0,0,4,1,2,0,996.2448021
1,1,6,17,2,3,1,0,5,1,1,1,952.6241664
1,1,6,18,1,1,0,0,1,1,1,1,814.7157729
1,1,6,19,2,1,1,0,4,1,1,1,738.096009
1,1,6,20,1,1,1,0,10,2,2,1,641.4053477
1,1,6,21,1,4,0,1,6,2,2,1,635.8829979
1,1,6,22,1,4,1,1,7,2,2,1,478.6930252
1,1,6,23,2,2,0,0,10,2,2,1,824.5867537
1,1,6,24,2,2,1,1,3,1,1,1,676.2033673
1,1,6,25,2,3,0,1,8,2,1,0,541.3775519
1,1,6,26,1,2,0,0,9,2,2,1,1044.611934
1,1,6,27,1,3,0,1,6,2,2,1,870.3384232
1,1,6,28,2,3,1,0,7,2,2,1,1144.046939
1,1,6,29,2,4,0,1,2,1,1,1,726.8272089
1,1,6,30,2,4,1,1,5,1,1,1,518.7873719
1,1,6,31,1,2,0,0,8,2,2,1,726.2934083
1,1,6,32,1,2,1,1,2,1,1,1,861.5459437
1,1,6,33,2,1,0,0,5,1,2,0,792.1178993
1,1,6,34,2,1,1,1,9,2,2,1,828.1085538
1,1,6,35,1,1,1,0,7,2,2,1,679.5190219
1,1,6,36,1,3,0,1,4,1,1,1,1024.329439
1,1,6,37,2,4,0,0,10,2,2,1,579.5656051
1,1,6,38,2,3,0,1,1,1,1,1,632.7161016
1,1,6,39,1,4,0,0,6,2,2,1,738.9484867
1,1,6,40,1,4,1,1,7,2,2,1,985.9111942
1,1,6,41,2,4,1,0,9,2,1,0,726.7749505
1,1,6,42,1,2,0,0,3,1,1,1,885.4432125
1,1,6,43,2,2,1,0,6,2,2,1,734.7143106
1,1,6,44,1,2,1,0,2,1,1,1,772.4368526
1,1,6,45,2,3,0,0,4,1,1,1,626.2056595
1,1,6,46,1,1,0,0,8,2,2,1,949.0141999
1,1,6,47,2,3,0,0,5,1,1,1,850.707069
1,1,6,48,1,1,0,0,1,1,1,1,813.1656675
1,1,7,1,2,4,99,99,3,1,1,1,774.7791614
1,1,7,2,2,3,0,1,2,1,1,1,604.2124387
1,1,7,3,1,3,1,0,1,1,1,1,855.9411988
1,1,7,4,2,3,1,0,10,2,2,1,954.1970342
1,1,7,5,2,1,0,1,6,2,2,1,648.714086
1,1,7,6,2,1,1,1,7,2,2,1,706.922383
1,1,7,7,1,1,1,0,4,1,1,1,978.9054235
1,1,7,8,1,2,0,1,10,2,2,1,1008.41417
1,1,7,9,1,2,1,1,5,1,1,1,1093.010805
1,1,7,10,2,4,0,0,9,2,2,1,613.6887604
1,1,7,11,1,2,0,0,8,2,2,1,753.8952203
1,1,7,12,1,2,1,1,1,1,1,1,632.1168989
1,1,7,13,2,4,0,0,3,1,1,1,922.7480106
1,1,7,14,1,4,1,0,9,2,2,1,738.2983081
1,1,7,15,2,1,0,0,4,1,1,1,841.1897114
1,1,7,16,1,3,0,0,2,1,1,1,811.725528
1,1,7,17,2,3,1,0,5,1,1,1,775.6970422
1,1,7,18,1,1,0,0,2,1,1,1,924.8652598
1,1,7,19,2,1,1,0,4,1,1,1,620.9003562
1,1,7,20,1,1,1,0,7,2,2,1,704.1007737
1,1,7,21,1,4,0,1,10,2,2,1,518.9274745
1,1,7,22,1,4,1,1,6,2,2,1,605.7763305
1,1,7,23,2,2,0,0,10,2,2,1,665.4061712
1,1,7,24,2,2,1,1,1,1,1,1,818.6267829
1,1,7,25,2,3,0,1,8,2,2,1,1173.595119
1,1,7,26,1,2,0,0,9,2,2,1,538.8117824
1,1,7,27,1,3,0,1,7,2,2,1,624.7549411
1,1,7,28,2,3,1,0,6,2,2,1,1012.337363
1,1,7,29,2,4,0,1,3,1,1,1,568.6167637
1,1,7,30,2,4,1,1,5,1,1,1,509.7041074
1,1,7,31,1,2,0,0,10,2,2,1,972.7168642
1,1,7,32,1,2,1,1,4,1,1,1,649.2523747
1,1,7,33,2,1,0,0,1,1,1,1,522.9282528
1,1,7,34,2,1,1,1,9,2,1,0,546.9855024
1,1,7,35,1,1,1,0,7,2,2,1,712.6133684
1,1,7,36,1,3,0,1,5,1,1,1,968.8606774
1,1,7,37,2,4,0,0,8,2,2,1,774.4425312
1,1,7,38,2,3,0,1,3,1,1,1,764.0063306
1,1,7,39,1,4,0,0,6,2,2,1,602.5334522
1,1,7,40,1,4,1,1,9,2,2,1,534.857491
1,1,7,41,2,4,1,0,7,2,2,1,597.6038929
1,1,7,42,1,2,0,0,2,1,1,1,802.2565814
1,1,7,43,2,2,1,0,8,2,2,1,518.4446489
1,1,7,44,1,2,1,0,3,1,1,1,902.0048138
1,1,7,45,2,3,0,0,4,1,1,1,870.3307286
1,1,7,46,1,1,0,0,10,2,2,1,744.1556863
1,1,7,47,2,3,0,0,2,1,1,1,815.1979567
1,1,7,48,1,1,0,0,1,1,2,0,858.6313613
1,1,8,1,2,4,99,99,3,1,1,1,599.185097
1,1,8,2,2,3,0,1,4,1,1,1,1003.535586
1,1,8,3,1,3,1,0,3,1,1,1,887.8419492
1,1,8,4,2,3,1,0,10,2,2,1,807.9812312
1,1,8,5,2,1,0,1,6,2,2,1,836.2835553
1,1,8,6,2,1,1,1,10,2,2,1,535.4108484
1,1,8,7,1,1,1,0,2,1,1,1,821.358623
1,1,8,8,1,2,0,1,8,2,2,1,824.8307314
1,1,8,9,1,2,1,1,5,1,1,1,1028.521296
1,1,8,10,2,4,0,0,9,2,2,1,792.1461118
1,1,8,11,1,2,0,0,7,2,2,1,868.7155414
1,1,8,12,1,2,1,1,2,1,1,1,837.8269291
1,1,8,13,2,4,0,0,4,1,1,1,737.1681901
1,1,8,14,1,4,1,0,10,2,2,1,591.5535139
1,1,8,15,2,1,0,0,1,1,1,1,635.2969389
1,1,8,16,1,3,0,0,3,1,1,1,637.9438192
1,1,8,17,2,3,1,0,5,1,1,1,943.7954593
1,1,8,18,1,1,0,0,3,1,2,0,662.0828221
1,1,8,19,2,1,1,0,5,1,1,1,743.6674116
1,1,8,20,1,1,1,0,6,2,2,1,733.5909251
1,1,8,21,1,4,0,1,9,2,2,1,611.8231835
1,1,8,22,1,4,1,1,8,2,2,1,775.6316392
1,1,8,23,2,2,0,0,6,2,2,1,1036.332736
1,1,8,24,2,2,1,1,2,1,1,1,646.5545185
1,1,8,25,2,3,0,1,7,2,2,1,808.9981768
1,1,8,26,1,2,0,0,9,2,2,1,1004.383255
1,1,8,27,1,3,0,1,8,2,2,1,1408.389741
1,1,8,28,2,3,1,0,10,2,2,1,604.0242463
1,1,8,29,2,4,0,1,4,1,1,1,791.1644317
1,1,8,30,2,4,1,1,1,1,1,1,547.3625287
1,1,8,31,1,2,0,0,8,2,2,1,1274.022063
1,1,8,32,1,2,1,1,4,1,2,0,874.9634111
1,1,8,33,2,1,0,0,5,1,1,1,827.0374266
1,1,8,34,2,1,1,1,10,2,2,1,533.7478919
1,1,8,35,1,1,1,0,7,2,1,0,587.7130348
1,1,8,36,1,3,0,1,2,1,1,1,951.10003
1,1,8,37,2,4,0,0,9,2,2,1,676.9522913
1,1,8,38,2,3,0,1,3,1,1,1,717.8414073
1,1,8,39,1,4,0,0,6,2,2,1,660.6741017
1,1,8,40,1,4,1,1,7,2,2,1,613.8804797
1,1,8,41,2,4,1,0,10,2,2,1,697.47716
1,1,8,42,1,2,0,0,1,1,1,1,841.75942
1,1,8,43,2,2,1,0,9,2,2,1,820.3807902
1,1,8,44,1,2,1,0,2,1,1,1,838.9188955
1,1,8,45,2,3,0,0,5,1,1,1,992.4783828
1,1,8,46,1,1,0,0,6,2,1,0,989.0604569
1,1,8,47,2,3,0,0,3,1,1,1,928.7134316
1,1,8,48,1,1,0,0,1,1,1,1,735.7434398
1,1,9,1,2,4,99,99,3,1,1,1,964.8073204
1,1,9,2,2,3,0,1,4,1,1,1,1010.158239
1,1,9,3,1,3,1,0,1,1,1,1,733.7467382
1,1,9,4,2,3,1,0,10,2,2,1,739.9163805
1,1,9,5,2,1,0,1,9,2,2,1,546.2061213
1,1,9,6,2,1,1,1,10,2,2,1,440.7678647
1,1,9,7,1,1,1,0,2,1,1,1,554.8960082
1,1,9,8,1,2,0,1,8,2,2,1,832.5148923
1,1,9,9,1,2,1,1,3,1,1,1,1299.103952
1,1,9,10,2,4,0,0,6,2,2,1,690.8939406
1,1,9,11,1,2,0,0,7,2,2,1,755.2956045
1,1,9,12,1,2,1,1,1,1,1,1,833.1330111
1,1,9,13,2,4,0,0,3,1,1,1,459.4592173
1,1,9,14,1,4,1,0,8,2,2,1,716.613505
1,1,9,15,2,1,0,0,5,1,1,1,643.5479233
1,1,9,16,1,3,0,0,2,1,1,1,1109.848122
1,1,9,17,2,3,1,0,4,1,1,1,893.3963589
1,1,9,18,1,1,0,0,2,1,1,1,653.6205616
1,1,9,19,2,1,1,0,4,1,1,1,623.4629191
1,1,9,20,1,1,1,0,10,2,1,0,1170.223039
1,1,9,21,1,4,0,1,6,2,2,1,575.147084
1,1,9,22,1,4,1,1,9,2,2,1,571.9535779
1,1,9,23,2,2,0,0,8,2,2,1,784.5196584
1,1,9,24,2,2,1,1,3,1,1,1,716.9004437
1,1,9,25,2,3,0,1,7,2,2,1,899.8702532
1,1,9,26,1,2,0,0,6,2,2,1,1563.751326
1,1,9,27,1,3,0,1,9,2,2,1,1168.98039
1,1,9,28,2,3,1,0,10,2,2,1,518.2359386
1,1,9,29,2,4,0,1,5,1,1,1,621.1824855
1,1,9,30,2,4,1,1,1,1,1,1,527.6147975
1,1,9,31,1,2,0,0,7,2,2,1,1526.698199
1,1,9,32,1,2,1,1,2,1,1,1,1133.559122
1,1,9,33,2,1,0,0,1,1,1,1,675.7420227
1,1,9,34,2,1,1,1,8,2,2,1,557.1363671
1,1,9,35,1,1,1,0,6,2,2,1,866.2190223
1,1,9,36,1,3,0,1,5,1,1,1,963.5387035
1,1,9,37,2,4,0,0,9,2,2,1,760.7951928
1,1,9,38,2,3,0,1,3,1,1,1,877.6987782
1,1,9,39,1,4,0,0,10,2,2,1,686.9553598
1,1,9,40,1,4,1,1,7,2,2,1,887.1568255
1,1,9,41,2,4,1,0,9,2,2,1,639.1380588
1,1,9,42,1,2,0,0,4,1,1,1,777.7120192
1,1,9,43,2,2,1,0,8,2,2,1,806.6581106
1,1,9,44,1,2,1,0,1,1,1,1,650.3526773
1,1,9,45,2,3,0,0,5,1,1,1,675.39417
1,1,9,46,1,1,0,0,6,2,2,1,868.3234472
1,1,9,47,2,3,0,0,4,1,1,1,805.422836
1,1,9,48,1,1,0,0,2,1,2,0,848.9001626
1,1,10,1,2,4,99,99,3,1,1,1,789.7605207
1,1,10,2,2,3,0,1,5,1,1,1,1241.958449
1,1,10,3,1,3,1,0,4,1,1,1,1252.336299
1,1,10,4,2,3,1,0,10,2,2,1,758.2108295
1,1,10,5,2,1,0,1,9,2,2,1,859.5460355
1,1,10,6,2,1,1,1,10,2,2,1,517.4174448
1,1,10,7,1,1,1,0,3,1,1,1,987.9431631
1,1,10,8,1,2,0,1,8,2,2,1,976.7679777
1,1,10,9,1,2,1,1,1,1,1,1,924.7039976
1,1,10,10,2,4,0,0,6,2,2,1,931.5209342
1,1,10,11,1,2,0,0,7,2,2,1,1538.045867
1,1,10,12,1,2,1,1,4,1,1,1,1103.988179
1,1,10,13,2,4,0,0,3,1,1,1,535.9866479
1,1,10,14,1,4,1,0,6,2,2,1,669.8586764
1,1,10,15,2,1,0,0,5,1,1,1,654.7830608
1,1,10,16,1,3,0,0,2,1,2,0,752.2553476
1,1,10,17,2,3,1,0,1,1,1,1,717.6118568
1,1,10,18,1,1,0,0,3,1,1,1,828.817402
1,1,10,19,2,1,1,0,5,1,1,1,783.7085379
1,1,10,20,1,1,1,0,8,2,2,1,748.225715
1,1,10,21,1,4,0,1,9,2,2,1,593.5226437
1,1,10,22,1,4,1,1,10,2,2,1,517.4232144
1,1,10,23,2,2,0,0,9,2,2,1,836.6211485
1,1,10,24,2,2,1,1,1,1,1,1,958.9852085
1,1,10,25,2,3,0,1,7,2,2,1,812.1391041
1,1,10,26,1,2,0,0,6,2,2,1,879.9070772
1,1,10,27,1,3,0,1,10,2,2,1,592.6413117
1,1,10,28,2,3,1,0,8,2,2,1,709.2880961
1,1,10,29,2,4,0,1,4,1,2,0,732.7788435
1,1,10,30,2,4,1,1,2,1,1,1,2106.925525
1,1,10,31,1,2,0,0,7,2,1,0,1034.53128
1,1,10,32,1,2,1,1,3,1,1,1,844.180597
1,1,10,33,2,1,0,0,5,1,1,1,902.8056748
1,1,10,34,2,1,1,1,9,2,2,1,798.1929649
1,1,10,35,1,1,1,0,6,2,2,1,769.5312453
1,1,10,36,1,3,0,1,2,1,1,1,942.8980974
1,1,10,37,2,4,0,0,10,2,2,1,573.0298348
1,1,10,38,2,3,0,1,1,1,1,1,641.4454225
1,1,10,39,1,4,0,0,8,2,2,1,780.3855091
1,1,10,40,1,4,1,1,6,2,2,1,856.9825105
1,1,10,41,2,4,1,0,9,2,2,1,490.6972852
1,1,10,42,1,2,0,0,4,1,1,1,754.4860877
1,1,10,43,2,2,1,0,7,2,2,1,616.3737923
1,1,10,44,1,2,1,0,3,1,1,1,763.4096928
1,1,10,45,2,3,0,0,5,1,1,1,880.6919083
1,1,10,46,1,1,0,0,8,2,2,1,633.5320314
1,1,10,47,2,3,0,0,1,1,1,1,779.7580929
1,1,10,48,1,1,0,0,4,1,1,1,1313.098501
2,1,1,1,2,2,99,99,4,1,2,0,3613.829183
2,1,1,2,2,1,0,1,6,2,99,99,99000
2,1,1,3,1,3,0,0,7,2,2,1,1652.298403
2,1,1,4,1,3,1,1,1,1,1,1,926.4772404
2,1,1,5,1,3,1,1,8,2,2,1,1998.231244
2,1,1,6,2,4,0,0,10,2,1,0,4153.765954
2,1,1,7,1,4,1,0,3,1,1,1,2439.937829
2,1,1,8,1,4,1,1,9,2,2,1,1154.971413
2,1,1,9,2,1,0,0,2,1,1,1,2553.471899
2,1,1,10,1,1,1,0,5,1,1,1,2399.71396
2,1,1,11,1,1,1,1,3,1,1,1,924.5273462
2,1,1,12,1,2,0,1,10,2,2,1,971.7012011
2,1,1,13,2,2,1,0,7,2,1,0,4185.097316
2,1,1,14,1,4,0,0,1,1,1,1,2614.013529
2,1,1,15,1,4,1,1,4,1,1,1,834.2474196
2,1,1,16,2,2,0,0,9,2,2,1,4349.520044
2,1,1,17,2,3,0,1,2,1,1,1,4092.201608
2,1,1,18,2,2,0,1,5,1,2,0,3965.555604
2,1,1,19,1,2,1,0,3,1,1,1,1323.302907
2,1,1,20,1,2,1,1,6,2,2,1,2210.720701
2,1,1,21,2,1,0,0,1,1,1,1,2159.134096
2,1,1,22,1,3,0,0,4,1,1,1,1077.639275
2,1,1,23,2,4,0,0,8,2,2,1,3359.532731
2,1,1,24,2,4,1,1,2,1,1,1,2494.173559
2,1,1,25,1,1,0,0,7,2,2,1,1791.001246
2,1,1,26,2,1,1,0,5,1,1,1,2331.817105
2,1,1,27,2,3,0,1,3,1,1,1,3731.593903
2,1,1,28,2,3,0,1,1,1,1,1,3042.738021
2,1,1,29,1,4,0,0,4,1,1,1,1101.686264
2,1,1,30,2,4,1,0,2,1,1,1,2070.160938
2,1,1,31,1,3,0,0,5,1,1,1,1487.443185
2,1,1,32,2,1,0,0,10,2,2,1,2992.982687
2,1,1,33,1,1,1,0,9,2,2,1,1405.623917
2,1,1,34,2,1,1,0,6,2,1,0,2826.109286
2,1,1,35,1,2,0,0,3,1,1,1,1629.89289
2,1,1,36,2,3,0,0,8,2,2,1,3817.471979
2,1,1,37,2,2,0,1,9,2,2,1,2501.563731
2,1,1,38,1,2,1,0,5,1,1,1,981.5240921
2,1,1,39,2,2,1,0,6,2,2,1,3298.755139
2,1,1,40,1,3,0,0,8,2,2,1,867.0814382
2,1,1,41,2,4,0,0,10,2,2,1,4245.292377
2,1,1,42,1,4,1,0,7,2,2,1,768.008071
2,1,1,43,1,4,1,1,6,2,2,1,1237.920159
2,1,1,44,2,3,0,0,1,1,1,1,2280.71685
2,1,1,45,1,3,1,0,9,2,2,1,970.6252646
2,1,1,46,1,1,0,1,8,2,2,1,3408.197059
2,1,1,47,2,2,0,0,10,2,2,1,1068.517859
2,1,1,48,2,1,0,1,2,1,1,1,1222.461426
2,1,2,1,2,2,99,99,4,1,1,1,1988.096409
2,1,2,2,2,1,0,1,6,2,2,1,2304.776344
2,1,2,3,1,3,0,0,6,2,2,1,1689.166223
2,1,2,4,1,3,1,1,3,1,1,1,1098.547903
2,1,2,5,1,3,1,1,8,2,2,1,1282.553573
2,1,2,6,2,4,0,0,7,2,2,1,1859.791615
2,1,2,7,1,4,1,0,1,1,1,1,1085.99734
2,1,2,8,1,4,1,1,10,2,2,1,662.9548566
2,1,2,9,2,1,0,0,5,1,1,1,1089.564665
2,1,2,10,1,1,1,0,2,1,1,1,802.2415135
2,1,2,11,1,1,1,1,1,1,1,1,670.3671487
2,1,2,12,1,2,0,1,6,2,2,1,935.7006075
2,1,2,13,2,2,1,0,9,2,2,1,1438.720508
2,1,2,14,1,4,0,0,3,1,1,1,857.575302
2,1,2,15,1,4,1,1,5,1,1,1,947.7208965
2,1,2,16,2,2,0,0,7,2,2,1,2282.117556
2,1,2,17,2,3,0,1,4,1,1,1,2971.353349
2,1,2,18,2,2,0,1,2,1,1,1,2057.237517
2,1,2,19,1,2,1,0,4,1,1,1,899.5227208
2,1,2,20,1,2,1,1,10,2,2,1,939.6840734
2,1,2,21,2,1,0,0,2,1,1,1,2690.82405
2,1,2,22,1,3,0,0,3,1,1,1,771.740186
2,1,2,23,2,4,0,0,8,2,2,1,4609.723248
2,1,2,24,2,4,1,1,5,1,1,1,2262.239981
2,1,2,25,1,1,0,0,6,2,2,1,1416.566666
2,1,2,26,2,1,1,0,1,1,1,1,1228.284179
2,1,2,27,2,3,0,1,4,1,1,1,3904.138412
2,1,2,28,2,3,0,1,5,1,1,1,3024.502243
2,1,2,29,1,4,0,0,2,1,1,1,1012.308829
2,1,2,30,2,4,1,0,3,1,1,1,4456.942821
2,1,2,31,1,3,0,0,1,1,1,1,1203.344316
2,1,2,32,2,1,0,0,7,2,2,1,2216.090445
2,1,2,33,1,1,1,0,8,2,2,1,931.7187443
2,1,2,34,2,1,1,0,9,2,2,1,3499.0079
2,1,2,35,1,2,0,0,5,1,1,1,1227.25505
2,1,2,36,2,3,0,0,10,2,2,1,2822.742336
2,1,2,37,2,2,0,1,9,2,2,1,1914.422327
2,1,2,38,1,2,1,0,4,1,1,1,826.0852424
2,1,2,39,2,2,1,0,6,2,2,1,2870.298347
2,1,2,40,1,3,0,0,8,2,2,1,775.7547507
2,1,2,41,2,4,0,0,7,2,99,99,99000
2,1,2,42,1,4,1,0,10,2,2,1,1226.021058
2,1,2,43,1,4,1,1,6,2,2,1,965.5546406
2,1,2,44,2,3,0,0,2,1,1,1,3627.733643
2,1,2,45,1,3,1,0,9,2,2,1,686.6838103
2,1,2,46,1,1,0,1,10,2,2,1,1047.687458
2,1,2,47,2,2,0,0,8,2,2,1,1818.958605
2,1,2,48,2,1,0,1,1,1,1,1,1398.400458
2,1,3,1,2,2,99,99,4,1,1,1,2671.688345
2,1,3,2,2,1,0,1,6,2,2,1,1489.346593
2,1,3,3,1,3,0,0,6,2,2,1,938.2089889
2,1,3,4,1,3,1,1,1,1,1,1,784.7591462
2,1,3,5,1,3,1,1,8,2,2,1,781.9946054
2,1,3,6,2,4,0,0,9,2,2,1,1890.75044
2,1,3,7,1,4,1,0,4,1,1,1,795.652844
2,1,3,8,1,4,1,1,7,2,2,1,824.537701
2,1,3,9,2,1,0,0,5,1,1,1,2276.312116
2,1,3,10,1,1,1,0,3,1,1,1,893.8823901
2,1,3,11,1,1,1,1,4,1,1,1,662.8208458
2,1,3,12,1,2,0,1,6,2,2,1,897.1111616
2,1,3,13,2,2,1,0,9,2,2,1,3130.19185
2,1,3,14,1,4,0,0,5,1,1,1,858.2591433
2,1,3,15,1,4,1,1,2,1,1,1,804.1045247
2,1,3,16,2,2,0,0,7,2,2,1,3216.915031
2,1,3,17,2,3,0,1,3,1,1,1,3956.635845
2,1,3,18,2,2,0,1,1,1,1,1,2227.071025
2,1,3,19,1,2,1,0,2,1,1,1,958.7293696
2,1,3,20,1,2,1,1,8,2,2,1,780.9404694
2,1,3,21,2,1,0,0,4,1,1,1,2666.730894
2,1,3,22,1,3,0,0,5,1,1,1,1203.693771
2,1,3,23,2,4,0,0,10,2,99,99,99000
2,1,3,24,2,4,1,1,1,1,1,1,835.7699541
2,1,3,25,1,1,0,0,8,2,2,1,1158.659606
2,1,3,26,2,1,1,0,3,1,1,1,1205.475671
2,1,3,27,2,3,0,1,2,1,1,1,3185.685299
2,1,3,28,2,3,0,1,5,1,1,1,3935.003942
2,1,3,29,1,4,0,0,1,1,1,1,637.8402654
2,1,3,30,2,4,1,0,4,1,1,1,2472.896562
2,1,3,31,1,3,0,0,3,1,1,1,754.5678411
2,1,3,32,2,1,0,0,9,2,2,1,1801.285802
2,1,3,33,1,1,1,0,10,2,2,1,709.1399785
2,1,3,34,2,1,1,0,7,2,2,1,1269.387457
2,1,3,35,1,2,0,0,5,1,1,1,1087.038971
2,1,3,36,2,3,0,0,6,2,2,1,3592.246332
2,1,3,37,2,2,0,1,8,2,2,1,1053.260784
2,1,3,38,1,2,1,0,1,1,1,1,895.3834437
2,1,3,39,2,2,1,0,7,2,2,1,968.3743259
2,1,3,40,1,3,0,0,10,2,2,1,702.3268891
2,1,3,41,2,4,0,0,9,2,2,1,2070.312903
2,1,3,42,1,4,1,0,6,2,2,1,1183.995732
2,1,3,43,1,4,1,1,9,2,2,1,1020.327058
2,1,3,44,2,3,0,0,2,1,1,1,2624.046412
2,1,3,45,1,3,1,0,6,2,2,1,908.0901388
2,1,3,46,1,1,0,1,8,2,2,1,1284.351183
2,1,3,47,2,2,0,0,7,2,2,1,1669.363668
2,1,3,48,2,1,0,1,3,1,1,1,1502.99874
2,1,4,1,2,2,99,99,4,1,1,1,2664.839348
2,1,4,2,2,1,0,1,6,2,2,1,2025.911605
2,1,4,3,1,3,0,0,7,2,2,1,700.728694
2,1,4,4,1,3,1,1,3,1,1,1,1485.46636
2,1,4,5,1,3,1,1,9,2,2,1,821.4128045
2,1,4,6,2,4,0,0,10,2,2,1,1304.688499
2,1,4,7,1,4,1,0,5,1,1,1,936.361366
2,1,4,8,1,4,1,1,8,2,2,1,918.9190743
2,1,4,9,2,1,0,0,1,1,1,1,1005.829166
2,1,4,10,1,1,1,0,4,1,1,1,722.4070849
2,1,4,11,1,1,1,1,5,1,1,1,865.6518795
2,1,4,12,1,2,0,1,6,2,2,1,1283.596488
2,1,4,13,2,2,1,0,9,2,2,1,2156.365707
2,1,4,14,1,4,0,0,3,1,1,1,770.3574346
2,1,4,15,1,4,1,1,1,1,1,1,558.8999931
2,1,4,16,2,2,0,0,10,2,2,1,797.0631681
2,1,4,17,2,3,0,1,2,1,1,1,1833.762351
2,1,4,18,2,2,0,1,4,1,1,1,2740.131824
2,1,4,19,1,2,1,0,3,1,1,1,690.4864572
2,1,4,20,1,2,1,1,8,2,2,1,690.6425897
2,1,4,21,2,1,0,0,1,1,1,1,1298.755459
2,1,4,22,1,3,0,0,2,1,1,1,818.2956027
2,1,4,23,2,4,0,0,7,2,2,1,4781.966393
2,1,4,24,2,4,1,1,5,1,1,1,1387.066896
2,1,4,25,1,1,0,0,8,2,2,1,1591.455089
2,1,4,26,2,1,1,0,4,1,1,1,1203.40523
2,1,4,27,2,3,0,1,5,1,1,1,2919.53014
2,1,4,28,2,3,0,1,1,1,1,1,1918.303521
2,1,4,29,1,4,0,0,3,1,1,1,677.5178304
2,1,4,30,2,4,1,0,2,1,1,1,1374.390338
2,1,4,31,1,3,0,0,4,1,1,1,723.0530949
2,1,4,32,2,1,0,0,6,2,2,1,4018.735916
2,1,4,33,1,1,1,0,7,2,2,1,813.2753139
2,1,4,34,2,1,1,0,10,2,2,1,1841.346165
2,1,4,35,1,2,0,0,1,1,1,1,1139.598922
2,1,4,36,2,3,0,0,9,2,2,1,2113.983873
2,1,4,37,2,2,0,1,8,2,2,1,1697.386429
2,1,4,38,1,2,1,0,4,1,2,0,689.6727718
2,1,4,39,2,2,1,0,7,2,2,1,1905.691723
2,1,4,40,1,3,0,0,9,2,2,1,801.4461026
2,1,4,41,2,4,0,0,6,2,2,1,2862.156368
2,1,4,42,1,4,1,0,10,2,2,1,1072.169182
2,1,4,43,1,4,1,1,6,2,2,1,777.102557
2,1,4,44,2,3,0,0,5,1,1,1,2014.123751
2,1,4,45,1,3,1,0,9,2,2,1,794.7045071
2,1,4,46,1,1,0,1,8,2,2,1,854.5315173
2,1,4,47,2,2,0,0,7,2,2,1,1176.598508
2,1,4,48,2,1,0,1,2,1,1,1,3998.320051
2,1,5,1,2,2,99,99,4,1,1,1,2180.585179
2,1,5,2,2,1,0,1,6,2,2,1,1578.038904
2,1,5,3,1,3,0,0,6,2,2,1,1175.657865
2,1,5,4,1,3,1,1,1,1,1,1,588.225035
2,1,5,5,1,3,1,1,10,2,2,1,625.0264896
2,1,5,6,2,4,0,0,8,2,2,1,4004.619538
2,1,5,7,1,4,1,0,2,1,1,1,712.1004071
2,1,5,8,1,4,1,1,7,2,2,1,591.6900886
2,1,5,9,2,1,0,0,4,1,1,1,1308.863685
2,1,5,10,1,1,1,0,5,1,1,1,876.0585841
2,1,5,11,1,1,1,1,4,1,1,1,605.3271675
2,1,5,12,1,2,0,1,8,2,2,1,1065.207014
2,1,5,13,2,2,1,0,6,2,2,1,3730.580804
2,1,5,14,1,4,0,0,2,1,1,1,706.0339972
2,1,5,15,1,4,1,1,3,1,1,1,802.0420996
2,1,5,16,2,2,0,0,9,2,2,1,4149.604555
2,1,5,17,2,3,0,1,1,1,1,1,1299.307855
2,1,5,18,2,2,0,1,5,1,1,1,1099.367359
2,1,5,19,1,2,1,0,2,1,1,1,1210.950892
2,1,5,20,1,2,1,1,7,2,2,1,742.2586912
2,1,5,21,2,1,0,0,5,1,99,99,99000
2,1,5,22,1,3,0,0,4,1,1,1,1089.314597
2,1,5,23,2,4,0,0,10,2,1,0,3370.306844
2,1,5,24,2,4,1,1,1,1,1,1,2158.965139
2,1,5,25,1,1,0,0,7,2,2,1,700.471893
2,1,5,26,2,1,1,0,3,1,1,1,1412.836475
2,1,5,27,2,3,0,1,2,1,1,1,2400.950197
2,1,5,28,2,3,0,1,4,1,1,1,917.3157504
2,1,5,29,1,4,0,0,1,1,1,1,859.8929252
2,1,5,30,2,4,1,0,5,1,1,1,4894.162916
2,1,5,31,1,3,0,0,3,1,1,1,726.2193495
2,1,5,32,2,1,0,0,9,2,2,1,2030.263441
2,1,5,33,1,1,1,0,6,2,2,1,936.8768921
2,1,5,34,2,1,1,0,8,2,2,1,1983.171018
2,1,5,35,1,2,0,0,4,1,1,1,971.5370536
2,1,5,36,2,3,0,0,10,2,2,1,1657.193338
2,1,5,37,2,2,0,1,6,2,2,1,2379.005386
2,1,5,38,1,2,1,0,2,1,1,1,831.9288343
2,1,5,39,2,2,1,0,7,2,2,1,2306.648974
2,1,5,40,1,3,0,0,10,2,2,1,666.9117128
2,1,5,41,2,4,0,0,8,2,2,1,1516.477442
2,1,5,42,1,4,1,0,9,2,2,1,779.7305221
2,1,5,43,1,4,1,1,6,2,2,1,729.0415987
2,1,5,44,2,3,0,0,3,1,1,1,1768.061291
2,1,5,45,1,3,1,0,10,2,2,1,588.6463039
2,1,5,46,1,1,0,1,9,2,2,1,961.2749396
2,1,5,47,2,2,0,0,7,2,2,1,1479.189316
2,1,5,48,2,1,0,1,5,1,1,1,3201.455977
2,1,6,1,2,2,99,99,4,1,1,1,1131.673027
2,1,6,2,2,1,0,1,6,2,2,1,2546.74441
2,1,6,3,1,3,0,0,9,2,2,1,625.2624523
2,1,6,4,1,3,1,1,3,1,1,1,660.3188757
2,1,6,5,1,3,1,1,7,2,2,1,669.4370853
2,1,6,6,2,4,0,0,10,2,2,1,1062.811484
2,1,6,7,1,4,1,0,2,1,1,1,727.9720744
2,1,6,8,1,4,1,1,6,2,2,1,918.8822061
2,1,6,9,2,1,0,0,4,1,1,1,1526.90114
2,1,6,10,1,1,1,0,5,1,1,1,1566.269966
2,1,6,11,1,1,1,1,1,1,1,1,603.7754603
2,1,6,12,1,2,0,1,9,2,2,1,743.3423223
2,1,6,13,2,2,1,0,7,2,2,1,1325.661248
2,1,6,14,1,4,0,0,2,1,1,1,780.9574613
2,1,6,15,1,4,1,1,4,1,1,1,593.4732705
2,1,6,16,2,2,0,0,6,2,2,1,2526.416712
2,1,6,17,2,3,0,1,3,1,1,1,3990.423972
2,1,6,18,2,2,0,1,5,1,1,1,1778.324367
2,1,6,19,1,2,1,0,4,1,1,1,719.2469211
2,1,6,20,1,2,1,1,10,2,2,1,718.3713606
2,1,6,21,2,1,0,0,3,1,1,1,2077.555918
2,1,6,22,1,3,0,0,5,1,1,1,711.135719
2,1,6,23,2,4,0,0,8,2,2,1,2423.184509
2,1,6,24,2,4,1,1,2,1,1,1,3370.514273
2,1,6,25,1,1,0,0,10,2,2,1,616.5623059
2,1,6,26,2,1,1,0,1,1,1,1,2043.113124
2,1,6,27,2,3,0,1,3,1,1,1,3077.909221
2,1,6,28,2,3,0,1,4,1,1,1,3527.904299
2,1,6,29,1,4,0,0,5,1,1,1,846.4982212
2,1,6,30,2,4,1,0,2,1,1,1,1448.973645
2,1,6,31,1,3,0,0,1,1,1,1,682.8080667
2,1,6,32,2,1,0,0,6,2,2,1,3683.540639
2,1,6,33,1,1,1,0,9,2,2,1,876.9597923
2,1,6,34,2,1,1,0,8,2,2,1,2694.291349
2,1,6,35,1,2,0,0,2,1,1,1,1542.695862
2,1,6,36,2,3,0,0,7,2,2,1,3454.414241
2,1,6,37,2,2,0,1,9,2,2,1,1111.961202
2,1,6,38,1,2,1,0,4,1,1,1,1015.60685
2,1,6,39,2,2,1,0,7,2,2,1,1482.215468
2,1,6,40,1,3,0,0,6,2,2,1,714.7732573
2,1,6,41,2,4,0,0,10,2,2,1,4426.403022
2,1,6,42,1,4,1,0,8,2,2,1,670.093677
2,1,6,43,1,4,1,1,6,2,2,1,679.285625
2,1,6,44,2,3,0,0,3,1,1,1,3488.161973
2,1,6,45,1,3,1,0,10,2,2,1,593.1395255
2,1,6,46,1,1,0,1,7,2,2,1,717.6865563
2,1,6,47,2,2,0,0,9,2,2,1,1764.71518
2,1,6,48,2,1,0,1,5,1,1,1,1929.745125
2,1,7,1,2,2,99,99,4,1,1,1,3121.177196
2,1,7,2,2,1,0,1,6,2,2,1,2263.673387
2,1,7,3,1,3,0,0,8,2,2,1,561.2115255
2,1,7,4,1,3,1,1,3,1,1,1,678.7739452
2,1,7,5,1,3,1,1,6,2,2,1,799.7042779
2,1,7,6,2,4,0,0,9,2,1,0,3219.530493
2,1,7,7,1,4,1,0,5,1,1,1,574.2115695
2,1,7,8,1,4,1,1,7,2,1,0,491.991871
2,1,7,9,2,1,0,0,4,1,1,1,1963.775626
2,1,7,10,1,1,1,0,1,1,1,1,634.1184098
2,1,7,11,1,1,1,1,5,1,1,1,876.8632924
2,1,7,12,1,2,0,1,10,2,2,1,590.5548409
2,1,7,13,2,2,1,0,6,2,2,1,2411.273224
2,1,7,14,1,4,0,0,3,1,1,1,999.192086
2,1,7,15,1,4,1,1,4,1,1,1,523.1760778
2,1,7,16,2,2,0,0,8,2,2,1,2097.560132
2,1,7,17,2,3,0,1,2,1,1,1,2466.139257
2,1,7,18,2,2,0,1,1,1,1,1,1316.341058
2,1,7,19,1,2,1,0,4,1,1,1,1171.969352
2,1,7,20,1,2,1,1,7,2,2,1,632.7161016
2,1,7,21,2,1,0,0,2,1,1,1,1962.862556
2,1,7,22,1,3,0,0,3,1,1,1,759.6480828
2,1,7,23,2,4,0,0,9,2,2,1,1278.036308
2,1,7,24,2,4,1,1,5,1,1,1,1718.752234
2,1,7,25,1,1,0,0,7,2,2,1,822.3906374
2,1,7,26,2,1,1,0,1,1,1,1,777.3481375
2,1,7,27,2,3,0,1,4,1,1,1,1678.625507
2,1,7,28,2,3,0,1,1,1,1,1,807.9578271
2,1,7,29,1,4,0,0,5,1,1,1,708.1958093
2,1,7,30,2,4,1,0,3,1,1,1,1099.418975
2,1,7,31,1,3,0,0,2,1,1,1,1211.954053
2,1,7,32,2,1,0,0,8,2,2,1,2799.434973
2,1,7,33,1,1,1,0,10,2,2,1,651.4827944
2,1,7,34,2,1,1,0,9,2,2,1,2364.494029
2,1,7,35,1,2,0,0,5,1,1,1,1090.204906
2,1,7,36,2,3,0,0,6,2,2,1,2202.392773
2,1,7,37,2,2,0,1,10,2,2,1,685.8569803
2,1,7,38,1,2,1,0,1,1,2,0,574.0419729
2,1,7,39,2,2,1,0,7,2,2,1,2986.883897
2,1,7,40,1,3,0,0,6,2,2,1,839.5697158
2,1,7,41,2,4,0,0,8,2,2,1,2914.059087
2,1,7,42,1,4,1,0,9,2,1,0,682.0940878
2,1,7,43,1,4,1,1,7,2,2,1,625.9373166
2,1,7,44,2,3,0,0,3,1,1,1,2580.309398
2,1,7,45,1,3,1,0,8,2,2,1,641.3037172
2,1,7,46,1,1,0,1,10,2,2,1,923.5100793
2,1,7,47,2,2,0,0,6,2,2,1,2531.318378
2,1,7,48,2,1,0,1,2,1,1,1,2425.678784
2,1,8,1,2,2,99,99,4,1,1,1,1064.578636
2,1,8,2,2,1,0,1,6,2,2,1,2274.768743
2,1,8,3,1,3,0,0,7,2,2,1,947.693646
2,1,8,4,1,3,1,1,4,1,1,1,1058.319545
2,1,8,5,1,3,1,1,10,2,2,1,667.5230991
2,1,8,6,2,4,0,0,8,2,2,1,2500.669896
2,1,8,7,1,4,1,0,5,1,1,1,724.3018355
2,1,8,8,1,4,1,1,6,2,2,1,996.2326186
2,1,8,9,2,1,0,0,3,1,1,1,1721.239136
2,1,8,10,1,1,1,0,1,1,1,1,680.2461445
2,1,8,11,1,1,1,1,2,1,1,1,656.2087722
2,1,8,12,1,2,0,1,7,2,2,1,754.2642327
2,1,8,13,2,2,1,0,8,2,2,1,1079.845329
2,1,8,14,1,4,0,0,5,1,1,1,1176.675132
2,1,8,15,1,4,1,1,4,1,1,1,573.6450683
2,1,8,16,2,2,0,0,9,2,2,1,1987.827426
2,1,8,17,2,3,0,1,3,1,1,1,1503.828456
2,1,8,18,2,2,0,1,1,1,1,1,943.6967149
2,1,8,19,1,2,1,0,4,1,1,1,582.6959517
2,1,8,20,1,2,1,1,10,2,2,1,730.4407014
2,1,8,21,2,1,0,0,2,1,1,1,2050.573186
2,1,8,22,1,3,0,0,3,1,1,1,819.8521193
2,1,8,23,2,4,0,0,6,2,2,1,3343.389834
2,1,8,24,2,4,1,1,5,1,1,1,2661.438734
2,1,8,25,1,1,0,0,7,2,2,1,1103.508881
2,1,8,26,2,1,1,0,1,1,1,1,719.1064982
2,1,8,27,2,3,0,1,5,1,1,1,2366.506121
2,1,8,28,2,3,0,1,1,1,1,1,2204.256426
2,1,8,29,1,4,0,0,3,1,1,1,696.1735962
2,1,8,30,2,4,1,0,2,1,1,1,1056.786111
2,1,8,31,1,3,0,0,4,1,1,1,1658.621615
2,1,8,32,2,1,0,0,10,2,2,1,1044.9678
2,1,8,33,1,1,1,0,8,2,2,1,863.6644753
2,1,8,34,2,1,1,0,9,2,2,1,1225.61165
2,1,8,35,1,2,0,0,2,1,1,1,1444.990179
2,1,8,36,2,3,0,0,6,2,2,1,2847.443673
2,1,8,37,2,2,0,1,10,2,2,1,729.5731548
2,1,8,38,1,2,1,0,5,1,2,0,784.9396449
2,1,8,39,2,2,1,0,6,2,2,1,2004.648392
2,1,8,40,1,3,0,0,8,2,2,1,1400.733791
2,1,8,41,2,4,0,0,9,2,2,1,2133.033657
2,1,8,42,1,4,1,0,7,2,2,1,1194.399551
2,1,8,43,1,4,1,1,10,2,2,1,2055.906061
2,1,8,44,2,3,0,0,3,1,1,1,1609.506201
2,1,8,45,1,3,1,0,9,2,2,1,1197.2
2,1,8,46,1,1,0,1,7,2,2,1,1105.797971
2,1,8,47,2,2,0,0,6,2,2,1,2049.488273
2,1,8,48,2,1,0,1,1,1,1,1,875.3013248
2,1,9,1,2,2,99,99,4,1,1,1,1835.749756
2,1,9,2,2,1,0,1,6,2,2,1,1750.004729
2,1,9,3,1,3,0,0,7,2,2,1,852.393751
2,1,9,4,1,3,1,1,5,1,1,1,823.0084358
2,1,9,5,1,3,1,1,9,2,2,1,873.5482795
2,1,9,6,2,4,0,0,8,2,2,1,2491.277252
2,1,9,7,1,4,1,0,1,1,1,1,1012.513052
2,1,9,8,1,4,1,1,6,2,2,1,672.3330729
2,1,9,9,2,1,0,0,4,1,1,1,2089.261377
2,1,9,10,1,1,1,0,2,1,1,1,1272.88393
2,1,9,11,1,1,1,1,1,1,1,1,890.3503306
2,1,9,12,1,2,0,1,10,2,2,1,994.081066
2,1,9,13,2,2,1,0,9,2,2,1,1437.437463
2,1,9,14,1,4,0,0,3,1,1,1,776.1381892
2,1,9,15,1,4,1,1,4,1,1,1,1165.956482
2,1,9,16,2,2,0,0,7,2,2,1,2258.670731
2,1,9,17,2,3,0,1,5,1,1,1,4427.710111
2,1,9,18,2,2,0,1,2,1,1,1,1759.16109
2,1,9,19,1,2,1,0,3,1,1,1,668.997542
2,1,9,20,1,2,1,1,8,2,1,0,549.2592035
2,1,9,21,2,1,0,0,5,1,1,1,1098.990972
2,1,9,22,1,3,0,0,1,1,1,1,761.893251
2,1,9,23,2,4,0,0,6,2,2,1,3143.972239
2,1,9,24,2,4,1,1,2,1,1,1,797.8281211
2,1,9,25,1,1,0,0,7,2,2,1,818.2478333
2,1,9,26,2,1,1,0,4,1,1,1,3061.73202
2,1,9,27,2,3,0,1,5,1,1,1,2303.863914
2,1,9,28,2,3,0,1,4,1,1,1,1111.714981
2,1,9,29,1,4,0,0,2,1,1,1,775.682616
2,1,9,30,2,4,1,0,1,1,1,1,988.8934232
2,1,9,31,1,3,0,0,3,1,1,1,761.5098124
2,1,9,32,2,1,0,0,9,2,1,0,1326.133813
2,1,9,33,1,1,1,0,10,2,2,1,620.4566443
2,1,9,34,2,1,1,0,8,2,2,1,799.012742
2,1,9,35,1,2,0,0,2,1,1,1,1234.618932
2,1,9,36,2,3,0,0,6,2,2,1,3269.870923
2,1,9,37,2,2,0,1,8,2,2,1,1735.736387
2,1,9,38,1,2,1,0,5,1,1,1,1157.257618
2,1,9,39,2,2,1,0,7,2,2,1,1579.566566
2,1,9,40,1,3,0,0,6,2,2,1,1103.987858
2,1,9,41,2,4,0,0,9,2,2,1,1239.037454
2,1,9,42,1,4,1,0,10,2,2,1,696.3512087
2,1,9,43,1,4,1,1,9,2,2,1,601.7377209
2,1,9,44,2,3,0,0,1,1,1,1,765.4846227
2,1,9,45,1,3,1,0,8,2,2,1,554.4151068
2,1,9,46,1,1,0,1,7,2,2,1,1087.3102
2,1,9,47,2,2,0,0,6,2,2,1,1503.669117
2,1,9,48,2,1,0,1,4,1,1,1,1878.935657
2,1,10,1,2,2,99,99,4,1,1,1,2599.162335
2,1,10,2,2,1,0,1,6,2,2,1,1562.844987
2,1,10,3,1,3,0,0,7,2,2,1,599.4043881
2,1,10,4,1,3,1,1,1,1,1,1,666.6686973
2,1,10,5,1,3,1,1,10,2,2,1,603.3602823
2,1,10,6,2,4,0,0,6,2,2,1,1998.251443
2,1,10,7,1,4,1,0,5,1,1,1,706.2276406
2,1,10,8,1,4,1,1,8,2,2,1,633.7869093
2,1,10,9,2,1,0,0,4,1,1,1,1771.041597
2,1,10,10,1,1,1,0,3,1,1,1,1256.015835
2,1,10,11,1,1,1,1,4,1,1,1,842.0091672
2,1,10,12,1,2,0,1,7,2,2,1,916.09939
2,1,10,13,2,2,1,0,6,2,2,1,2506.766121
2,1,10,14,1,4,0,0,2,1,1,1,794.2720167
2,1,10,15,1,4,1,1,3,1,1,1,694.5144869
2,1,10,16,2,2,0,0,8,2,2,1,1318.356357
2,1,10,17,2,3,0,1,1,1,1,1,884.7417384
2,1,10,18,2,2,0,1,5,1,1,1,1660.760023
2,1,10,19,1,2,1,0,4,1,1,1,822.043106
2,1,10,20,1,2,1,1,10,2,2,1,632.9520643
2,1,10,21,2,1,0,0,1,1,1,1,1403.195686
2,1,10,22,1,3,0,0,2,1,1,1,911.0306902
2,1,10,23,2,4,0,0,9,2,2,1,1718.519158
2,1,10,24,2,4,1,1,3,1,1,1,1589.146762
2,1,10,25,1,1,0,0,7,2,2,1,953.3471214
2,1,10,26,2,1,1,0,5,1,1,1,1606.751277
2,1,10,27,2,3,0,1,1,1,1,1,641.7301157
2,1,10,28,2,3,0,1,3,1,1,1,1355.61082
2,1,10,29,1,4,0,0,5,1,1,1,848.2111916
2,1,10,30,2,4,1,0,2,1,1,1,969.8827537
2,1,10,31,1,3,0,0,4,1,1,1,686.3782778
2,1,10,32,2,1,0,0,8,2,2,1,1286.832313
2,1,10,33,1,1,1,0,10,2,2,1,710.704511
2,1,10,34,2,1,1,0,9,2,2,1,1214.464999
2,1,10,35,1,2,0,0,3,1,1,1,848.5689815
2,1,10,36,2,3,0,0,6,2,2,1,4274.902433
2,1,10,37,2,2,0,1,9,2,2,1,1618.935714
2,1,10,38,1,2,1,0,1,1,1,1,750.2201721
2,1,10,39,2,2,1,0,8,2,2,1,1035.435054
2,1,10,40,1,3,0,0,7,2,2,1,629.0538777
2,1,10,41,2,4,0,0,10,2,2,1,960.3221137
2,1,10,42,1,4,1,0,6,2,2,1,669.4265055
2,1,10,43,1,4,1,1,8,2,2,1,598.785948
2,1,10,44,2,3,0,0,2,1,1,1,2153.721711
2,1,10,45,1,3,1,0,9,2,2,1,679.3606449
2,1,10,46,1,1,0,1,10,2,2,1,904.3695657
2,1,10,47,2,2,0,0,6,2,2,1,2503.335692
2,1,10,48,2,1,0,1,4,1,1,1,1542.093133
3,1,1,1,1,3,99,99,6,2,2,1,1817.078922
3,1,1,2,2,3,1,0,1,1,1,1,1890.37181
3,1,1,3,1,3,1,0,4,1,1,1,1771.173685
3,1,1,4,1,1,0,1,3,1,1,1,2560.937091
3,1,1,5,2,4,0,0,10,2,2,1,735.5738422
3,1,1,6,1,4,1,0,9,2,2,1,3934.456035
3,1,1,7,2,2,0,0,2,1,99,99,99000
3,1,1,8,2,2,1,1,5,1,1,1,1498.045136
3,1,1,9,2,1,0,1,4,1,1,1,1002.337181
3,1,1,10,1,2,0,0,8,2,2,1,1741.986181
3,1,1,11,1,4,0,1,2,1,1,1,2629.353319
3,1,1,12,2,1,0,0,1,1,1,1,793.1486303
3,1,1,13,1,1,1,0,7,2,2,1,4301.963071
3,1,1,14,1,1,1,1,6,2,99,99,99000
3,1,1,15,2,2,0,0,7,2,2,1,1123.237377
3,1,1,16,1,3,0,0,3,1,99,99,99000
3,1,1,17,2,4,0,0,5,1,1,1,1855.553914
3,1,1,18,2,3,0,1,10,2,2,1,1081.347344
3,1,1,19,1,4,0,0,1,1,1,1,3802.630723
3,1,1,20,2,4,1,0,8,2,2,1,983.3476692
3,1,1,21,1,2,0,0,9,2,2,1,3412.098452
3,1,1,22,1,1,0,1,3,1,1,1,2432.669487
3,1,1,23,1,1,1,1,7,2,2,1,2516.161009
3,1,1,24,2,2,0,0,2,1,1,1,2043.418977
3,1,1,25,1,3,0,0,5,1,99,99,99000
3,1,1,26,1,2,0,1,8,2,2,1,1338.853332
3,1,1,27,2,3,0,0,10,2,2,1,905.9103737
3,1,1,28,1,3,1,0,6,2,1,0,3026.411421
3,1,1,29,2,4,0,0,9,2,2,1,1278.168074
3,1,1,30,2,2,0,1,4,1,1,1,2631.933195
3,1,1,31,1,1,0,0,3,1,99,99,99000
3,1,1,32,1,1,1,1,1,1,1,1,3791.333068
3,1,1,33,1,1,1,1,8,2,2,1,3821.220445
3,1,1,34,2,4,0,0,4,1,2,0,2408.874489
3,1,1,35,2,3,0,1,10,2,2,1,796.6816528
3,1,1,36,2,4,0,1,2,1,1,1,641.6198295
3,1,1,37,1,2,0,0,7,2,2,1,2900.462403
3,1,1,38,2,4,0,0,6,2,2,1,1884.787585
3,1,1,39,2,4,1,1,5,1,1,1,781.8051307
3,1,1,40,2,4,1,1,9,2,2,1,906.7817666
3,1,1,41,1,2,0,0,3,1,1,1,3427.327955
3,1,1,42,2,2,1,0,10,2,2,1,1575.011469
3,1,1,43,2,2,1,1,4,1,1,1,1756.666174
3,1,1,44,1,3,0,0,8,2,2,1,2923.19012
3,1,1,45,2,3,1,0,9,2,2,1,1010.791105
3,1,1,46,1,1,0,0,1,1,1,1,1391.114803
3,1,1,47,1,1,1,1,6,2,1,0,3300.366158
3,1,1,48,2,3,0,0,5,1,1,1,1612.469194
3,1,2,1,1,3,99,99,6,2,2,1,3851.167453
3,1,2,2,2,3,1,0,1,1,1,1,989.4890999
3,1,2,3,1,3,1,0,2,1,2,0,3186.344775
3,1,2,4,1,1,0,1,1,1,1,1,1607.085665
3,1,2,5,2,4,0,0,9,2,2,1,787.423661
3,1,2,6,1,4,1,0,10,2,2,1,3424.404716
3,1,2,7,2,2,0,0,4,1,2,0,1068.186679
3,1,2,8,2,2,1,1,3,1,1,1,1581.817825
3,1,2,9,2,1,0,1,4,1,1,1,1538.631284
3,1,2,10,1,2,0,0,6,2,99,99,99000
3,1,2,11,1,4,0,1,5,1,1,1,2934.621786
3,1,2,12,2,1,0,0,2,1,1,1,2229.36781
3,1,2,13,1,1,1,0,7,2,2,1,2569.210197
3,1,2,14,1,1,1,1,9,2,1,0,2910.972982
3,1,2,15,2,2,0,0,6,2,2,1,1679.485038
3,1,2,16,1,3,0,0,3,1,1,1,3968.961026
3,1,2,17,2,4,0,0,1,1,99,99,99000
3,1,2,18,2,3,0,1,10,2,2,1,1259.226332
3,1,2,19,1,4,0,0,5,1,1,1,1909.603055
3,1,2,20,2,4,1,0,8,2,2,1,750.2426142
3,1,2,21,1,2,0,0,7,2,2,1,3068.684571
3,1,2,22,1,1,0,1,2,1,1,1,2070.16703
3,1,2,23,1,1,1,1,6,2,2,1,2143.857143
3,1,2,24,2,2,0,0,3,1,2,0,3527.102476
3,1,2,25,1,3,0,0,4,1,1,1,1134.494957
3,1,2,26,1,2,0,1,10,2,2,1,1581.553651
3,1,2,27,2,3,0,0,9,2,2,1,1970.513696
3,1,2,28,1,3,1,0,7,2,2,1,1200.155941
3,1,2,29,2,4,0,0,8,2,2,1,1372.56708
3,1,2,30,2,2,0,1,1,1,1,1,1810.391188
3,1,2,31,1,1,0,0,3,1,1,1,1102.464683
3,1,2,32,1,1,1,1,4,1,1,1,815.1617283
3,1,2,33,1,1,1,1,9,2,2,1,946.3544954
3,1,2,34,2,4,0,0,1,1,1,1,1409.47818
3,1,2,35,2,3,0,1,7,2,2,1,1613.648685
3,1,2,36,2,4,0,1,5,1,1,1,4666.469605
3,1,2,37,1,2,0,0,10,2,2,1,924.265095
3,1,2,38,2,4,0,0,8,2,99,99,99000
3,1,2,39,2,4,1,1,2,1,1,1,1040.099155
3,1,2,40,2,4,1,1,6,2,1,0,1675.390003
3,1,2,41,1,2,0,0,1,1,2,0,1036.876155
3,1,2,42,2,2,1,0,10,2,2,1,1503.551136
3,1,2,43,2,2,1,1,4,1,1,1,1599.501851
3,1,2,44,1,3,0,0,8,2,1,0,4620.186378
3,1,2,45,2,3,1,0,7,2,2,1,3543.86317
3,1,2,46,1,1,0,0,2,1,1,1,1902.966616
3,1,2,47,1,1,1,1,9,2,2,1,1775.676845
3,1,2,48,2,3,0,0,3,1,1,1,1253.308681
3,1,3,1,1,3,99,99,6,2,2,1,1022.199688
3,1,3,2,2,3,1,0,1,1,1,1,946.2329876
3,1,3,3,1,3,1,0,1,1,99,99,99000
3,1,3,4,1,1,0,1,2,1,1,1,1357.40362
3,1,3,5,2,4,0,0,6,2,2,1,1427.690234
3,1,3,6,1,4,1,0,10,2,2,1,2639.477253
3,1,3,7,2,2,0,0,3,1,1,1,1082.474577
3,1,3,8,2,2,1,1,5,1,1,1,1563.494204
3,1,3,9,2,1,0,1,4,1,1,1,1985.862142
3,1,3,10,1,2,0,0,7,2,2,1,2542.976067
3,1,3,11,1,4,0,1,1,1,1,1,3542.636231
3,1,3,12,2,1,0,0,2,1,99,99,99000
3,1,3,13,1,1,1,0,9,2,2,1,1530.045593
3,1,3,14,1,1,1,1,10,2,2,1,2385.961785
3,1,3,15,2,2,0,0,7,2,2,1,2086.631808
3,1,3,16,1,3,0,0,3,1,1,1,4232.245203
3,1,3,17,2,4,0,0,5,1,1,1,1106.985797
3,1,3,18,2,3,0,1,8,2,2,1,3331.717078
3,1,3,19,1,4,0,0,3,1,1,1,970.4559874
3,1,3,20,2,4,1,0,9,2,2,1,704.0340882
3,1,3,21,1,2,0,0,6,2,1,0,4544.595423
3,1,3,22,1,1,0,1,2,1,1,1,950.6906224
3,1,3,23,1,1,1,1,8,2,2,1,964.9717892
3,1,3,24,2,2,0,0,4,1,1,1,1090.912151
3,1,3,25,1,3,0,0,1,1,1,1,1891.611896
3,1,3,26,1,2,0,1,7,2,2,1,1581.024338
3,1,3,27,2,3,0,0,10,2,2,1,738.5711391
3,1,3,28,1,3,1,0,9,2,1,0,1041.185351
3,1,3,29,2,4,0,0,6,2,1,0,971.8397008
3,1,3,30,2,2,0,1,5,1,1,1,2496.656293
3,1,3,31,1,1,0,0,4,1,1,1,1130.056237
3,1,3,32,1,1,1,1,5,1,99,99,99000
3,1,3,33,1,1,1,1,10,2,2,1,4261.986065
3,1,3,34,2,4,0,0,1,1,1,1,1264.761186
3,1,3,35,2,3,0,1,9,2,2,1,1474.158447
3,1,3,36,2,4,0,1,2,1,1,1,1148.097089
3,1,3,37,1,2,0,0,6,2,99,99,99000
3,1,3,38,2,4,0,0,7,2,2,1,886.2277232
3,1,3,39,2,4,1,1,3,1,1,1,2047.038562
3,1,3,40,2,4,1,1,8,2,2,1,3474.090159
3,1,3,41,1,2,0,0,1,1,1,1,1051.794356
3,1,3,42,2,2,1,0,10,2,2,1,926.4467834
3,1,3,43,2,2,1,1,2,1,1,1,861.7732506
3,1,3,44,1,3,0,0,6,2,99,99,99000
3,1,3,45,2,3,1,0,9,2,2,1,2460.553428
3,1,3,46,1,1,0,0,3,1,1,1,886.8737342
3,1,3,47,1,1,1,1,7,2,2,1,4616.179829
3,1,3,48,2,3,0,0,5,1,1,1,3028.457496
3,1,4,1,1,3,99,99,6,2,2,1,3151.87537
3,1,4,2,2,3,1,0,1,1,1,1,1141.88737
3,1,4,3,1,3,1,0,5,1,1,1,2012.958688
3,1,4,4,1,1,0,1,4,1,1,1,809.5928915
3,1,4,5,2,4,0,0,6,2,2,1,749.8277575
3,1,4,6,1,4,1,0,10,2,2,1,611.6843633
3,1,4,7,2,2,0,0,2,1,1,1,1151.920896
3,1,4,8,2,2,1,1,1,1,1,1,2038.352522
3,1,4,9,2,1,0,1,4,1,1,1,953.6613105
3,1,4,10,1,2,0,0,7,2,2,1,3599.813154
3,1,4,11,1,4,0,1,3,1,1,1,691.4995564
3,1,4,12,2,1,0,0,1,1,1,1,1652.465758
3,1,4,13,1,1,1,0,8,2,2,1,646.7135362
3,1,4,14,1,1,1,1,10,2,2,1,713.5790177
3,1,4,15,2,2,0,0,7,2,2,1,1881.899291
3,1,4,16,1,3,0,0,5,1,1,1,1643.010597
3,1,4,17,2,4,0,0,2,1,1,1,1454.265803
3,1,4,18,2,3,0,1,8,2,2,1,2056.738663
3,1,4,19,1,4,0,0,5,1,1,1,930.6052979
3,1,4,20,2,4,1,0,9,2,2,1,786.6865993
3,1,4,21,1,2,0,0,6,2,2,1,2623.394951
3,1,4,22,1,1,0,1,4,1,1,1,699.1949389
3,1,4,23,1,1,1,1,7,2,2,1,771.2541558
3,1,4,24,2,2,0,0,1,1,1,1,1440.847695
3,1,4,25,1,3,0,0,3,1,1,1,1659.800464
3,1,4,26,1,2,0,1,8,2,2,1,1334.156209
3,1,4,27,2,3,0,0,9,2,2,1,2341.260403
3,1,4,28,1,3,1,0,10,2,2,1,932.6026412
3,1,4,29,2,4,0,0,6,2,2,1,4867.471609
3,1,4,30,2,2,0,1,2,1,1,1,2197.747266
3,1,4,31,1,1,0,0,4,1,1,1,1002.385912
3,1,4,32,1,1,1,1,3,1,1,1,710.9654797
3,1,4,33,1,1,1,1,10,2,2,1,2558.810225
3,1,4,34,2,4,0,0,5,1,1,1,4572.994249
3,1,4,35,2,3,0,1,8,2,2,1,2179.183193
3,1,4,36,2,4,0,1,2,1,99,99,99000
3,1,4,37,1,2,0,0,7,2,2,1,1149.008238
3,1,4,38,2,4,0,0,9,2,2,1,2243.229952
3,1,4,39,2,4,1,1,1,1,1,1,718.7131206
3,1,4,40,2,4,1,1,6,2,99,99,99000
3,1,4,41,1,2,0,0,5,1,1,1,1553.81911
3,1,4,42,2,2,1,0,7,2,2,1,1376.211671
3,1,4,43,2,2,1,1,1,1,2,0,3029.993175
3,1,4,44,1,3,0,0,8,2,2,1,1176.640827
3,1,4,45,2,3,1,0,9,2,99,99,99000
3,1,4,46,1,1,0,0,4,1,1,1,1338.174621
3,1,4,47,1,1,1,1,10,2,2,1,3441.578344
3,1,4,48,2,3,0,0,2,1,1,1,2324.52055
3,1,5,1,1,3,99,99,6,2,2,1,1179.403765
3,1,5,2,2,3,1,0,1,1,1,1,936.7476907
3,1,5,3,1,3,1,0,5,1,1,1,1223.660152
3,1,5,4,1,1,0,1,4,1,1,1,875.2971571
3,1,5,5,2,4,0,0,8,2,2,1,788.8224423
3,1,5,6,1,4,1,0,9,2,2,1,713.6710305
3,1,5,7,2,2,0,0,2,1,1,1,1921.400205
3,1,5,8,2,2,1,1,3,1,1,1,2489.529977
3,1,5,9,2,1,0,1,5,1,1,1,1522.405994
3,1,5,10,1,2,0,0,6,2,2,1,1250.249507
3,1,5,11,1,4,0,1,2,1,1,1,723.9847612
3,1,5,12,2,1,0,0,4,1,1,1,2315.83483
3,1,5,13,1,1,1,0,7,2,2,1,987.9704136
3,1,5,14,1,1,1,1,9,2,2,1,2264.277078
3,1,5,15,2,2,0,0,7,2,2,1,2730.647168
3,1,5,16,1,3,0,0,3,1,1,1,962.4954667
3,1,5,17,2,4,0,0,1,1,1,1,1184.28267
3,1,5,18,2,3,0,1,6,2,99,99,99000
3,1,5,19,1,4,0,0,5,1,1,1,1065.021065
3,1,5,20,2,4,1,0,8,2,2,1,2114.797558
3,1,5,21,1,2,0,0,10,2,2,1,1202.522937
3,1,5,22,1,1,0,1,3,1,1,1,726.7024945
3,1,5,23,1,1,1,1,8,2,2,1,3334.48226
3,1,5,24,2,2,0,0,2,1,1,1,1053.885314
3,1,5,25,1,3,0,0,4,1,1,1,1327.234757
3,1,5,26,1,2,0,1,6,2,2,1,3935.537421
3,1,5,27,2,3,0,0,9,2,2,1,1862.598156
3,1,5,28,1,3,1,0,7,2,2,1,1656.585159
3,1,5,29,2,4,0,0,10,2,2,1,731.1620535
3,1,5,30,2,2,0,1,1,1,1,1,1226.803645
3,1,5,31,1,1,0,0,4,1,1,1,2414.536942
3,1,5,32,1,1,1,1,1,1,1,1,1602.564871
3,1,5,33,1,1,1,1,6,2,2,1,4175.528022
3,1,5,34,2,4,0,0,5,1,1,1,1965.214804
3,1,5,35,2,3,0,1,9,2,2,1,1498.995077
3,1,5,36,2,4,0,1,2,1,1,1,787.094404
3,1,5,37,1,2,0,0,8,2,2,1,2279.911501
3,1,5,38,2,4,0,0,7,2,2,1,1577.659633
3,1,5,39,2,4,1,1,3,1,1,1,670.9413445
3,1,5,40,2,4,1,1,10,2,2,1,712.1693371
3,1,5,41,1,2,0,0,1,1,1,1,1824.465566
3,1,5,42,2,2,1,0,8,2,2,1,1780.224247
3,1,5,43,2,2,1,1,4,1,1,1,1202.064477
3,1,5,44,1,3,0,0,9,2,2,1,2414.573169
3,1,5,45,2,3,1,0,6,2,2,1,1018.271364
3,1,5,46,1,1,0,0,2,1,99,99,99000
3,1,5,47,1,1,1,1,7,2,2,1,2273.792192
3,1,5,48,2,3,0,0,5,1,1,1,2227.500631
3,1,6,1,1,3,99,99,6,2,2,1,1727.701167
3,1,6,2,2,3,1,0,1,1,1,1,1263.297322
3,1,6,3,1,3,1,0,4,1,1,1,2369.413971
3,1,6,4,1,1,0,1,1,1,1,1,2918.628931
3,1,6,5,2,4,0,0,10,2,2,1,1382.273273
3,1,6,6,1,4,1,0,6,2,2,1,1971.630028
3,1,6,7,2,2,0,0,5,1,1,1,2217.073407
3,1,6,8,2,2,1,1,3,1,1,1,1405.127306
3,1,6,9,2,1,0,1,4,1,1,1,977.028626
3,1,6,10,1,2,0,0,9,2,2,1,2422.100238
3,1,6,11,1,4,0,1,3,1,1,1,2354.199534
3,1,6,12,2,1,0,0,2,1,1,1,880.5938037
3,1,6,13,1,1,1,0,7,2,2,1,1514.18675
3,1,6,14,1,1,1,1,10,2,2,1,850.0697147
3,1,6,15,2,2,0,0,8,2,2,1,1524.767219
3,1,6,16,1,3,0,0,1,1,1,1,3004.288999
3,1,6,17,2,4,0,0,5,1,1,1,2184.640781
3,1,6,18,2,3,0,1,6,2,1,0,4926.078734
3,1,6,19,1,4,0,0,1,1,1,1,948.8125425
3,1,6,20,2,4,1,0,9,2,2,1,3587.758239
3,1,6,21,1,2,0,0,7,2,2,1,3736.457738
3,1,6,22,1,1,0,1,5,1,1,1,2279.468752
3,1,6,23,1,1,1,1,6,2,1,0,4640.902965
3,1,6,24,2,2,0,0,2,1,1,1,995.610333
3,1,6,25,1,3,0,0,3,1,1,1,1088.442883
3,1,6,26,1,2,0,1,9,2,2,1,1969.772466
3,1,6,27,2,3,0,0,7,2,2,1,846.7367478
3,1,6,28,1,3,1,0,10,2,2,1,2242.218135
3,1,6,29,2,4,0,0,8,2,2,1,1076.825269
3,1,6,30,2,2,0,1,4,1,1,1,1030.779609
3,1,6,31,1,1,0,0,3,1,2,0,3706.493097
3,1,6,32,1,1,1,1,4,1,1,1,1145.718873
3,1,6,33,1,1,1,1,9,2,2,1,1528.748441
3,1,6,34,2,4,0,0,1,1,1,1,1296.664501
3,1,6,35,2,3,0,1,8,2,2,1,929.3604046
3,1,6,36,2,4,0,1,5,1,1,1,1136.922225
3,1,6,37,1,2,0,0,10,2,2,1,2599.959989
3,1,6,38,2,4,0,0,7,2,2,1,972.3222051
3,1,6,39,2,4,1,1,2,1,1,1,1202.299157
3,1,6,40,2,4,1,1,6,2,2,1,806.1925983
3,1,6,41,1,2,0,0,1,1,1,1,1834.885416
3,1,6,42,2,2,1,0,8,2,2,1,1628.986873
3,1,6,43,2,2,1,1,5,1,1,1,1360.947222
3,1,6,44,1,3,0,0,6,2,2,1,2975.461209
3,1,6,45,2,3,1,0,9,2,2,1,1036.762021
3,1,6,46,1,1,0,0,2,1,2,0,4352.007907
3,1,6,47,1,1,1,1,10,2,2,1,1813.99923
3,1,6,48,2,3,0,0,4,1,1,1,921.9840188
3,1,7,1,1,3,99,99,6,2,2,1,1839.137224
3,1,7,2,2,3,1,0,1,1,1,1,1410.484546
3,1,7,3,1,3,1,0,2,1,1,1,1526.823874
3,1,7,4,1,1,0,1,3,1,1,1,3206.602904
3,1,7,5,2,4,0,0,9,2,2,1,3034.857652
3,1,7,6,1,4,1,0,6,2,2,1,1629.854739
3,1,7,7,2,2,0,0,5,1,1,1,1177.608402
3,1,7,8,2,2,1,1,4,1,1,1,998.5771729
3,1,7,9,2,1,0,1,2,1,1,1,1210.970771
3,1,7,10,1,2,0,0,10,2,2,1,4191.728946
3,1,7,11,1,4,0,1,3,1,1,1,2828.19736
3,1,7,12,2,1,0,0,4,1,1,1,991.8416692
3,1,7,13,1,1,1,0,8,2,99,99,99000
3,1,7,14,1,1,1,1,7,2,2,1,1399.816552
3,1,7,15,2,2,0,0,6,2,2,1,2556.200212
3,1,7,16,1,3,0,0,1,1,1,1,1474.411401
3,1,7,17,2,4,0,0,5,1,1,1,1028.29944
3,1,7,18,2,3,0,1,10,2,2,1,879.3700701
3,1,7,19,1,4,0,0,3,1,1,1,712.8605517
3,1,7,20,2,4,1,0,9,2,2,1,704.5262111
3,1,7,21,1,2,0,0,8,2,2,1,2168.727756
3,1,7,22,1,1,0,1,1,1,1,1,1310.625386
3,1,7,23,1,1,1,1,9,2,2,1,1918.947288
3,1,7,24,2,2,0,0,2,1,1,1,1630.265108
3,1,7,25,1,3,0,0,4,1,1,1,2738.088956
3,1,7,26,1,2,0,1,6,2,2,1,2937.272834
3,1,7,27,2,3,0,0,7,2,2,1,904.5930244
3,1,7,28,1,3,1,0,10,2,2,1,3072.576665
3,1,7,29,2,4,0,0,8,2,2,1,682.7375339
3,1,7,30,2,2,0,1,5,1,1,1,1259.596626
3,1,7,31,1,1,0,0,2,1,1,1,3125.679072
3,1,7,32,1,1,1,1,3,1,1,1,2419.916304
3,1,7,33,1,1,1,1,9,2,2,1,2063.625811
3,1,7,34,2,4,0,0,4,1,1,1,713.6069108
3,1,7,35,2,3,0,1,6,2,2,1,1466.276795
3,1,7,36,2,4,0,1,5,1,1,1,755.4058917
3,1,7,37,1,2,0,0,8,2,2,1,3530.312332
3,1,7,38,2,4,0,0,10,2,2,1,1153.714659
3,1,7,39,2,4,1,1,1,1,1,1,735.9582428
3,1,7,40,2,4,1,1,7,2,2,1,790.8829451
3,1,7,41,1,2,0,0,3,1,1,1,2964.025054
3,1,7,42,2,2,1,0,9,2,2,1,1466.654142
3,1,7,43,2,2,1,1,5,1,1,1,1195.303646
3,1,7,44,1,3,0,0,7,2,2,1,3064.490791
3,1,7,45,2,3,1,0,6,2,2,1,1370.582881
3,1,7,46,1,1,0,0,4,1,1,1,2063.519371
3,1,7,47,1,1,1,1,10,2,2,1,2008.922323
3,1,7,48,2,3,0,0,2,1,1,1,964.9451794
3,1,8,1,1,3,99,99,6,2,2,1,1248.446768
3,1,8,2,2,3,1,0,1,1,1,1,818.0875322
3,1,8,3,1,3,1,0,5,1,2,0,3093.251576
3,1,8,4,1,1,0,1,3,1,1,1,2357.474794
3,1,8,5,2,4,0,0,6,2,2,1,723.0498884
3,1,8,6,1,4,1,0,9,2,2,1,1593.921792
3,1,8,7,2,2,0,0,1,1,1,1,1382.597079
3,1,8,8,2,2,1,1,2,1,1,1,1002.55038
3,1,8,9,2,1,0,1,1,1,1,1,822.4361632
3,1,8,10,1,2,0,0,10,2,2,1,1873.568797
3,1,8,11,1,4,0,1,3,1,1,1,1354.21813
3,1,8,12,2,1,0,0,4,1,1,1,911.8414903
3,1,8,13,1,1,1,0,7,2,2,1,2311.579815
3,1,8,14,1,1,1,1,8,2,2,1,1375.582652
3,1,8,15,2,2,0,0,10,2,2,1,764.5628946
3,1,8,16,1,3,0,0,5,1,1,1,2433.931693
3,1,8,17,2,4,0,0,2,1,1,1,1100.455477
3,1,8,18,2,3,0,1,6,2,2,1,1787.877953
3,1,8,19,1,4,0,0,4,1,1,1,3704.931771
3,1,8,20,2,4,1,0,9,2,2,1,600.5037287
3,1,8,21,1,2,0,0,7,2,2,1,2363.876552
3,1,8,22,1,1,0,1,3,1,1,1,2746.058452
3,1,8,23,1,1,1,1,6,2,2,1,2264.523942
3,1,8,24,2,2,0,0,2,1,1,1,2298.216529
3,1,8,25,1,3,0,0,5,1,2,0,4297.894325
3,1,8,26,1,2,0,1,7,2,2,1,3225.60075
3,1,8,27,2,3,0,0,9,2,2,1,940.4804455
3,1,8,28,1,3,1,0,8,2,2,1,1035.091369
3,1,8,29,2,4,0,0,10,2,2,1,733.4107477
3,1,8,30,2,2,0,1,1,1,1,1,915.4270906
3,1,8,31,1,1,0,0,3,1,1,1,818.1936508
3,1,8,32,1,1,1,1,4,1,1,1,933.2585903
3,1,8,33,1,1,1,1,6,2,2,1,1067.389023
3,1,8,34,2,4,0,0,5,1,1,1,1043.758494
3,1,8,35,2,3,0,1,7,2,2,1,830.222276
3,1,8,36,2,4,0,1,2,1,1,1,928.8987387
3,1,8,37,1,2,0,0,9,2,1,0,3576.491684
3,1,8,38,2,4,0,0,8,2,2,1,1404.790354
3,1,8,39,2,4,1,1,1,1,1,1,624.8065569
3,1,8,40,2,4,1,1,10,2,2,1,659.2961587
3,1,8,41,1,2,0,0,2,1,1,1,1636.979452
3,1,8,42,2,2,1,0,8,2,2,1,999.6293848
3,1,8,43,2,2,1,1,3,1,1,1,907.2193867
3,1,8,44,1,3,0,0,9,2,2,1,1122.486529
3,1,8,45,2,3,1,0,7,2,2,1,1024.752633
3,1,8,46,1,1,0,0,4,1,1,1,1787.783375
3,1,8,47,1,1,1,1,10,2,2,1,712.0071128
3,1,8,48,2,3,0,0,5,1,1,1,1031.668314
3,1,9,1,1,3,99,99,6,2,2,1,1109.739759
3,1,9,2,2,3,1,0,1,1,1,1,1253.220195
3,1,9,3,1,3,1,0,5,1,1,1,1174.58257
3,1,9,4,1,1,0,1,3,1,1,1,1011.856462
3,1,9,5,2,4,0,0,10,2,2,1,591.1774486
3,1,9,6,1,4,1,0,6,2,2,1,2875.609101
3,1,9,7,2,2,0,0,2,1,2,0,2204.645956
3,1,9,8,2,2,1,1,4,1,1,1,2328.188224
3,1,9,9,2,1,0,1,2,1,1,1,1511.278258
3,1,9,10,1,2,0,0,7,2,2,1,2623.082045
3,1,9,11,1,4,0,1,5,1,1,1,1034.400474
3,1,9,12,2,1,0,0,1,1,1,1,1084.278919
3,1,9,13,1,1,1,0,8,2,2,1,2924.681555
3,1,9,14,1,1,1,1,6,2,2,1,1236.083758
3,1,9,15,2,2,0,0,10,2,2,1,1062.424199
3,1,9,16,1,3,0,0,4,1,1,1,943.6813258
3,1,9,17,2,4,0,0,3,1,1,1,1478.277527
3,1,9,18,2,3,0,1,9,2,2,1,975.4746733
3,1,9,19,1,4,0,0,1,1,1,1,891.8539481
3,1,9,20,2,4,1,0,7,2,2,1,1372.131064
3,1,9,21,1,2,0,0,8,2,2,1,1249.272637
3,1,9,22,1,1,0,1,5,1,1,1,899.0681097
3,1,9,23,1,1,1,1,9,2,2,1,946.7459489
3,1,9,24,2,2,0,0,4,1,1,1,1960.937027
3,1,9,25,1,3,0,0,3,1,1,1,1262.377198
3,1,9,26,1,2,0,1,7,2,2,1,1848.421185
3,1,9,27,2,3,0,0,6,2,2,1,1513.716107
3,1,9,28,1,3,1,0,8,2,2,1,1025.336127
3,1,9,29,2,4,0,0,10,2,2,1,820.2945488
3,1,9,30,2,2,0,1,2,1,1,1,1879.617895
3,1,9,31,1,1,0,0,1,1,1,1,952.2224534
3,1,9,32,1,1,1,1,3,1,1,1,718.1767551
3,1,9,33,1,1,1,1,8,2,2,1,1020.684848
3,1,9,34,2,4,0,0,5,1,1,1,727.5389424
3,1,9,35,2,3,0,1,10,2,2,1,1102.870884
3,1,9,36,2,4,0,1,2,1,1,1,974.5968683
3,1,9,37,1,2,0,0,7,2,2,1,1187.151406
3,1,9,38,2,4,0,0,6,2,2,1,1151.836579
3,1,9,39,2,4,1,1,4,1,1,1,741.0602849
3,1,9,40,2,4,1,1,9,2,2,1,867.7027635
3,1,9,41,1,2,0,0,3,1,1,1,1972.343685
3,1,9,42,2,2,1,0,8,2,2,1,1201.757662
3,1,9,43,2,2,1,1,1,1,1,1,1957.018963
3,1,9,44,1,3,0,0,9,2,2,1,962.6993695
3,1,9,45,2,3,1,0,10,2,2,1,832.4193535
3,1,9,46,1,1,0,0,2,1,1,1,4210.76815
3,1,9,47,1,1,1,1,7,2,99,99,99000
3,1,9,48,2,3,0,0,4,1,1,1,2682.89527
3,1,10,1,1,3,99,99,6,2,2,1,2776.983934
3,1,10,2,2,3,1,0,1,1,1,1,725.7583253
3,1,10,3,1,3,1,0,3,1,1,1,2813.039351
3,1,10,4,1,1,0,1,2,1,1,1,1952.880967
3,1,10,5,2,4,0,0,6,2,2,1,1878.645833
3,1,10,6,1,4,1,0,10,2,2,1,1039.519188
3,1,10,7,2,2,0,0,5,1,1,1,1289.80845
3,1,10,8,2,2,1,1,4,1,1,1,825.7870832
3,1,10,9,2,1,0,1,3,1,1,1,1613.135083
3,1,10,10,1,2,0,0,9,2,2,1,2840.496572
3,1,10,11,1,4,0,1,4,1,1,1,746.7544768
3,1,10,12,2,1,0,0,1,1,1,1,1193.084446
3,1,10,13,1,1,1,0,8,2,2,1,1573.595376
3,1,10,14,1,1,1,1,6,2,2,1,2474.94456
3,1,10,15,2,2,0,0,7,2,2,1,947.8007257
3,1,10,16,1,3,0,0,2,1,1,1,3506.031625
3,1,10,17,2,4,0,0,5,1,1,1,897.7340888
3,1,10,18,2,3,0,1,8,2,2,1,1010.512823
3,1,10,19,1,4,0,0,3,1,1,1,661.2406038
3,1,10,20,2,4,1,0,9,2,2,1,647.065877
3,1,10,21,1,2,0,0,10,2,2,1,1122.040253
3,1,10,22,1,1,0,1,1,1,1,1,921.594169
3,1,10,23,1,1,1,1,8,2,2,1,1296.534336
3,1,10,24,2,2,0,0,2,1,1,1,1433.956058
3,1,10,25,1,3,0,0,5,1,1,1,1276.177143
3,1,10,26,1,2,0,1,9,2,2,1,972.8047093
3,1,10,27,2,3,0,0,7,2,2,1,930.7970172
3,1,10,28,1,3,1,0,10,2,2,1,673.9989156
3,1,10,29,2,4,0,0,6,2,1,0,906.9308462
3,1,10,30,2,2,0,1,4,1,1,1,1418.090161
3,1,10,31,1,1,0,0,3,1,1,1,1789.301741
3,1,10,32,1,1,1,1,5,1,1,1,1849.662231
3,1,10,33,1,1,1,1,9,2,2,1,955.3146493
3,1,10,34,2,4,0,0,4,1,1,1,673.1893979
3,1,10,35,2,3,0,1,7,2,2,1,1034.142711
3,1,10,36,2,4,0,1,2,1,1,1,1060.448335
3,1,10,37,1,2,0,0,8,2,2,1,4414.041613
3,1,10,38,2,4,0,0,6,2,2,1,3946.485941
3,1,10,39,2,4,1,1,1,1,1,1,616.546276
3,1,10,40,2,4,1,1,10,2,2,1,931.6911725
3,1,10,41,1,2,0,0,3,1,1,1,4290.225232
3,1,10,42,2,2,1,0,6,2,2,1,1194.68713
3,1,10,43,2,2,1,1,2,1,1,1,710.2864468
3,1,10,44,1,3,0,0,7,2,2,1,3814.353494
3,1,10,45,2,3,1,0,9,2,2,1,801.9468812
3,1,10,46,1,1,0,0,4,1,1,1,1149.033885
3,1,10,47,1,1,1,1,10,2,2,1,1354.65607
3,1,10,48,2,3,0,0,5,1,1,1,1376.708603
4,2,1,1,1,4,99,99,8,2,2,1,1441.732232
4,2,1,2,2,1,0,0,5,1,1,1,1410.313345
4,2,1,3,1,1,1,0,4,1,1,1,1206.310515
4,2,1,4,2,3,0,0,3,1,2,0,1417.951342
4,2,1,5,1,2,0,0,10,2,2,1,861.7376629
4,2,1,6,2,3,0,0,2,1,1,1,2375.30405
4,2,1,7,2,3,1,1,9,2,2,1,1085.049323
4,2,1,8,2,2,0,1,7,2,2,1,1062.818537
4,2,1,9,1,4,0,0,6,2,2,1,1368.590347
4,2,1,10,1,4,1,1,1,1,1,1,846.6662159
4,2,1,11,2,2,0,0,4,1,1,1,1169.515793
4,2,1,12,1,2,1,0,7,2,2,1,750.7029977
4,2,1,13,2,2,1,0,8,2,2,1,1133.045519
4,2,1,14,2,1,0,1,9,2,2,1,1499.987336
4,2,1,15,1,3,0,0,2,1,1,1,1348.343439
4,2,1,16,1,4,0,1,1,1,1,1,714.5824991
4,2,1,17,2,1,0,0,6,2,2,1,2026.616286
4,2,1,18,1,3,0,0,5,1,1,1,1230.487028
4,2,1,19,1,3,1,1,10,2,2,1,1041.764356
4,2,1,20,2,1,0,0,9,2,2,1,1180.883339
4,2,1,21,1,1,1,0,3,1,1,1,1682.394811
4,2,1,22,2,1,1,0,2,1,1,1,1163.215986
4,2,1,23,1,4,0,0,3,1,1,1,1041.469724
4,2,1,24,2,4,1,0,4,1,1,1,900.6890683
4,2,1,25,2,4,1,1,7,2,2,1,1636.682897
4,2,1,26,1,2,0,0,1,1,1,1,1479.724078
4,2,1,27,1,3,0,1,5,1,1,1,1481.352731
4,2,1,28,1,2,0,1,2,1,1,1,1010.274297
4,2,1,29,2,2,1,0,8,2,2,1,958.5540006
4,2,1,30,1,3,0,0,6,2,1,0,1381.230036
4,2,1,31,2,3,1,0,1,1,1,1,1105.502057
4,2,1,32,2,1,0,1,10,2,2,1,721.7940958
4,2,1,33,1,4,0,0,7,2,2,1,1673.485634
4,2,1,34,2,1,0,0,6,2,2,1,1339.109172
4,2,1,35,2,4,0,1,3,1,1,1,1234.462479
4,2,1,36,2,2,0,1,5,1,2,0,1549.109162
4,2,1,37,1,1,0,0,8,2,2,1,1235.504432
4,2,1,38,1,1,1,1,4,1,1,1,1310.056962
4,2,1,39,1,3,0,1,9,2,2,1,1758.777651
4,2,1,40,2,2,0,0,10,2,2,1,836.8340274
4,2,1,41,2,2,1,1,1,1,1,1,1847.791525
4,2,1,42,1,2,1,0,2,1,1,1,1362.634544
4,2,1,43,2,4,0,0,9,2,2,1,968.7109571
4,2,1,44,2,4,1,1,5,1,1,1,781.9461953
4,2,1,45,1,3,0,0,3,1,2,0,1891.031607
4,2,1,46,2,3,1,0,10,2,2,1,747.6188177
4,2,1,47,1,1,0,0,7,2,2,1,1169.926483
4,2,1,48,1,4,0,1,6,2,1,0,1783.463278
4,2,2,1,1,4,99,99,8,2,2,1,1710.105307
4,2,2,2,2,1,0,0,5,1,1,1,710.6961748
4,2,2,3,1,1,1,0,4,1,2,0,2166.656354
4,2,2,4,2,3,0,0,2,1,1,1,1292.759581
4,2,2,5,1,2,0,0,6,2,2,1,2197.152873
4,2,2,6,2,3,0,0,1,1,1,1,1298.255001
4,2,2,7,2,3,1,1,9,2,2,1,810.3754781
4,2,2,8,2,2,0,1,7,2,2,1,1303.142883
4,2,2,9,1,4,0,0,8,2,1,0,2311.098273
4,2,2,10,1,4,1,1,3,1,1,1,1527.188398
4,2,2,11,2,2,0,0,4,1,2,0,862.8193708
4,2,2,12,1,2,1,0,10,2,2,1,1784.874884
4,2,2,13,2,2,1,0,6,2,2,1,2358.075599
4,2,2,14,2,1,0,1,9,2,2,1,1452.825343
4,2,2,15,1,3,0,0,5,1,1,1,1630.627387
4,2,2,16,1,4,0,1,2,1,1,1,1210.342071
4,2,2,17,2,1,0,0,7,2,2,1,1062.538331
4,2,2,18,1,3,0,0,1,1,1,1,1009.148667
4,2,2,19,1,3,1,1,8,2,2,1,2677.097844
4,2,2,20,2,1,0,0,10,2,2,1,622.9287982
4,2,2,21,1,1,1,0,3,1,2,0,2786.848503
4,2,2,22,2,1,1,0,2,1,1,1,1199.640414
4,2,2,23,1,4,0,0,1,1,1,1,628.1661345
4,2,2,24,2,4,1,0,4,1,1,1,535.1938009
4,2,2,25,2,4,1,1,8,2,2,1,742.3872519
4,2,2,26,1,2,0,0,5,1,1,1,1829.022908
4,2,2,27,1,3,0,1,3,1,1,1,2296.780237
4,2,2,28,1,2,0,1,5,1,1,1,1793.8687
4,2,2,29,2,2,1,0,7,2,2,1,862.7683958
4,2,2,30,1,3,0,0,9,2,2,1,1513.462832
4,2,2,31,2,3,1,0,1,1,1,1,993.422552
4,2,2,32,2,1,0,1,6,2,2,1,1582.404526
4,2,2,33,1,4,0,0,8,2,1,0,1419.893863
4,2,2,34,2,1,0,0,9,2,2,1,767.0709556
4,2,2,35,2,4,0,1,3,1,1,1,724.2906149
4,2,2,36,2,2,0,1,2,1,1,1,1267.904357
4,2,2,37,1,1,0,0,6,2,1,0,1213.547439
4,2,2,38,1,1,1,1,4,1,2,0,1992.330906
4,2,2,39,1,3,0,1,7,2,2,1,1557.517562
4,2,2,40,2,2,0,0,10,2,2,1,811.2821374
4,2,2,41,2,2,1,1,3,1,2,0,664.092348
4,2,2,42,1,2,1,0,2,1,1,1,1096.525231
4,2,2,43,2,4,0,0,9,2,2,1,713.2029543
4,2,2,44,2,4,1,1,5,1,1,1,929.4062508
4,2,2,45,1,3,0,0,4,1,1,1,1273.108671
4,2,2,46,2,3,1,0,6,2,2,1,1578.612138
4,2,2,47,1,1,0,0,7,2,2,1,2200.448649
4,2,2,48,1,4,0,1,8,2,2,1,1188.964404
4,2,3,1,1,4,99,99,8,2,2,1,1599.0482
4,2,3,2,2,1,0,0,5,1,1,1,1058.962028
4,2,3,3,1,1,1,0,2,1,1,1,2253.767141
4,2,3,4,2,3,0,0,5,1,1,1,967.7639017
4,2,3,5,1,2,0,0,10,2,2,1,1757.275636
4,2,3,6,2,3,0,0,1,1,1,1,1171.827967
4,2,3,7,2,3,1,1,6,2,2,1,1777.398151
4,2,3,8,2,2,0,1,8,2,2,1,1311.36886
4,2,3,9,1,4,0,0,9,2,2,1,2351.81715
4,2,3,10,1,4,1,1,4,1,2,0,2982.015572
4,2,3,11,2,2,0,0,3,1,2,0,1146.898363
4,2,3,12,1,2,1,0,6,2,1,0,1169.277587
4,2,3,13,2,2,1,0,7,2,2,1,1319.015191
4,2,3,14,2,1,0,1,9,2,2,1,910.3375506
4,2,3,15,1,3,0,0,4,1,1,1,1198.690473
4,2,3,16,1,4,0,1,1,1,1,1,755.1776236
4,2,3,17,2,1,0,0,8,2,2,1,624.3926622
4,2,3,18,1,3,0,0,5,1,1,1,1556.591025
4,2,3,19,1,3,1,1,10,2,2,1,898.3288035
4,2,3,20,2,1,0,0,8,2,2,1,1042.611704
4,2,3,21,1,1,1,0,2,1,1,1,853.5754858
4,2,3,22,2,1,1,0,1,1,1,1,936.0266589
4,2,3,23,1,4,0,0,3,1,1,1,1319.144393
4,2,3,24,2,4,1,0,4,1,1,1,894.5322484
4,2,3,25,2,4,1,1,6,2,2,1,959.2426512
4,2,3,26,1,2,0,0,5,1,1,1,1557.606689
4,2,3,27,1,3,0,1,2,1,1,1,964.1988203
4,2,3,28,1,2,0,1,4,1,2,0,1506.540098
4,2,3,29,2,2,1,0,7,2,2,1,849.5051367
4,2,3,30,1,3,0,0,9,2,2,1,1555.813247
4,2,3,31,2,3,1,0,1,1,1,1,1146.429644
4,2,3,32,2,1,0,1,10,2,2,1,1169.10318
4,2,3,33,1,4,0,0,7,2,2,1,2262.814177
4,2,3,34,2,1,0,0,9,2,2,1,1529.429719
4,2,3,35,2,4,0,1,3,1,2,0,913.2027617
4,2,3,36,2,2,0,1,5,1,1,1,1552.541194
4,2,3,37,1,1,0,0,10,2,2,1,646.8193354
4,2,3,38,1,1,1,1,2,1,1,1,849.3025163
4,2,3,39,1,3,0,1,8,2,2,1,2603.787002
4,2,3,40,2,2,0,0,6,2,2,1,1207.928909
4,2,3,41,2,2,1,1,3,1,1,1,1244.416815
4,2,3,42,1,2,1,0,1,1,1,1,943.3421297
4,2,3,43,2,4,0,0,8,2,2,1,566.7287456
4,2,3,44,2,4,1,1,4,1,1,1,780.0200246
4,2,3,45,1,3,0,0,2,1,1,1,1585.740699
4,2,3,46,2,3,1,0,10,2,2,1,758.4076785
4,2,3,47,1,1,0,0,6,2,2,1,1140.054816
4,2,3,48,1,4,0,1,9,2,2,1,899.2575845
4,2,4,1,1,4,99,99,8,2,2,1,1090.520697
4,2,4,2,2,1,0,0,5,1,1,1,683.0449905
4,2,4,3,1,1,1,0,3,1,2,0,835.97642
4,2,4,4,2,3,0,0,1,1,1,1,1230.625848
4,2,4,5,1,2,0,0,8,2,2,1,778.2390863
4,2,4,6,2,3,0,0,2,1,1,1,1095.892686
4,2,4,7,2,3,1,1,10,2,2,1,705.2395483
4,2,4,8,2,2,0,1,9,2,1,0,1713.358124
4,2,4,9,1,4,0,0,6,2,2,1,697.437725
4,2,4,10,1,4,1,1,5,1,1,1,705.9288397
4,2,4,11,2,2,0,0,4,1,1,1,2058.359941
4,2,4,12,1,2,1,0,7,2,2,1,845.0814858
4,2,4,13,2,2,1,0,9,2,2,1,1567.549805
4,2,4,14,2,1,0,1,10,2,2,1,597.1364565
4,2,4,15,1,3,0,0,2,1,1,1,1458.368532
4,2,4,16,1,4,0,1,3,1,1,1,1036.421543
4,2,4,17,2,1,0,0,8,2,2,1,607.2860397
4,2,4,18,1,3,0,0,1,1,1,1,763.544024
4,2,4,19,1,3,1,1,6,2,1,0,1305.837212
4,2,4,20,2,1,0,0,7,2,2,1,729.130405
4,2,4,21,1,1,1,0,5,1,1,1,752.6455186
4,2,4,22,2,1,1,0,2,1,2,0,1223.064797
4,2,4,23,1,4,0,0,4,1,1,1,666.1345763
4,2,4,24,2,4,1,0,1,1,1,1,515.8246998
4,2,4,25,2,4,1,1,10,2,2,1,595.3811668
4,2,4,26,1,2,0,0,3,1,1,1,1064.324079
4,2,4,27,1,3,0,1,5,1,1,1,1362.624285
4,2,4,28,1,2,0,1,1,1,1,1,696.8955901
4,2,4,29,2,2,1,0,6,2,2,1,1570.244134
4,2,4,30,1,3,0,0,8,2,2,1,1287.461332
4,2,4,31,2,3,1,0,3,1,1,1,792.4163779
4,2,4,32,2,1,0,1,9,2,2,1,797.2734822
4,2,4,33,1,4,0,0,10,2,2,1,690.2508158
4,2,4,34,2,1,0,0,6,2,1,0,2035.684802
4,2,4,35,2,4,0,1,5,1,1,1,725.9314498
4,2,4,36,2,2,0,1,4,1,1,1,2509.900636
4,2,4,37,1,1,0,0,7,2,2,1,549.9642054
4,2,4,38,1,1,1,1,2,1,1,1,916.223784
4,2,4,39,1,3,0,1,8,2,2,1,1388.405725
4,2,4,40,2,2,0,0,9,2,2,1,2200.941092
4,2,4,41,2,2,1,1,5,1,1,1,1477.52123
4,2,4,42,1,2,1,0,4,1,1,1,1071.27182
4,2,4,43,2,4,0,0,7,2,2,1,768.8541375
4,2,4,44,2,4,1,1,1,1,1,1,966.3176714
4,2,4,45,1,3,0,0,2,1,1,1,1043.574469
4,2,4,46,2,3,1,0,6,2,2,1,2294.603678
4,2,4,47,1,1,0,0,8,2,2,1,623.2734434
4,2,4,48,1,4,0,1,10,2,2,1,458.5464662
4,2,5,1,1,4,99,99,8,2,2,1,694.1230334
4,2,5,2,2,1,0,0,5,1,1,1,726.6159328
4,2,5,3,1,1,1,0,1,1,1,1,662.2514585
4,2,5,4,2,3,0,0,2,1,2,0,912.3983737
4,2,5,5,1,2,0,0,7,2,2,1,1135.805572
4,2,5,6,2,3,0,0,3,1,1,1,1399.268966
4,2,5,7,2,3,1,1,10,2,2,1,699.0432953
4,2,5,8,2,2,0,1,9,2,2,1,1251.800574
4,2,5,9,1,4,0,0,8,2,2,1,637.8617454
4,2,5,10,1,4,1,1,5,1,1,1,657.040732
4,2,5,11,2,2,0,0,1,1,1,1,1834.796609
4,2,5,12,1,2,1,0,6,2,1,0,2118.025368
4,2,5,13,2,2,1,0,7,2,2,1,1196.510388
4,2,5,14,2,1,0,1,8,2,2,1,577.4009079
4,2,5,15,1,3,0,0,3,1,1,1,975.2685269
4,2,5,16,1,4,0,1,4,1,1,1,764.6298995
4,2,5,17,2,1,0,0,10,2,2,1,553.865918
4,2,5,18,1,3,0,0,2,1,1,1,863.7398155
4,2,5,19,1,3,1,1,9,2,2,1,1338.119477
4,2,5,20,2,1,0,0,7,2,2,1,721.1698852
4,2,5,21,1,1,1,0,5,1,1,1,752.9978584
4,2,5,22,2,1,1,0,2,1,1,1,958.8505561
4,2,5,23,1,4,0,0,4,1,1,1,757.2060656
4,2,5,24,2,4,1,0,5,1,1,1,883.2769133
4,2,5,25,2,4,1,1,10,2,2,1,619.5397265
4,2,5,26,1,2,0,0,1,1,1,1,790.8887155
4,2,5,27,1,3,0,1,3,1,2,0,1371.299424
4,2,5,28,1,2,0,1,5,1,1,1,1424.102389
4,2,5,29,2,2,1,0,9,2,2,1,1515.689727
4,2,5,30,1,3,0,0,8,2,2,1,1306.29503
4,2,5,31,2,3,1,0,4,1,1,1,1018.209169
4,2,5,32,2,1,0,1,6,2,2,1,1253.002187
4,2,5,33,1,4,0,0,8,2,2,1,1190.61614
4,2,5,34,2,1,0,0,7,2,2,1,954.583359
4,2,5,35,2,4,0,1,2,1,1,1,664.1910933
4,2,5,36,2,2,0,1,1,1,1,1,977.9631775
4,2,5,37,1,1,0,0,9,2,2,1,1102.664097
4,2,5,38,1,1,1,1,3,1,1,1,814.5692591
4,2,5,39,1,3,0,1,10,2,2,1,1027.024411
4,2,5,40,2,2,0,0,6,2,2,1,1677.485771
4,2,5,41,2,2,1,1,1,1,1,1,1262.483637
4,2,5,42,1,2,1,0,2,1,1,1,1280.688317
4,2,5,43,2,4,0,0,10,2,2,1,656.9708409
4,2,5,44,2,4,1,1,3,1,1,1,1074.640053
4,2,5,45,1,3,0,0,5,1,1,1,1340.361759
4,2,5,46,2,3,1,0,7,2,2,1,915.1741359
4,2,5,47,1,1,0,0,8,2,2,1,754.4405628
4,2,5,48,1,4,0,1,9,2,2,1,1295.816191
4,2,6,1,1,4,99,99,8,2,2,1,659.6757509
4,2,6,2,2,1,0,0,5,1,1,1,1293.676821
4,2,6,3,1,1,1,0,3,1,1,1,1133.693774
4,2,6,4,2,3,0,0,5,1,1,1,899.9321284
4,2,6,5,1,2,0,0,7,2,2,1,1308.691522
4,2,6,6,2,3,0,0,1,1,1,1,635.7252616
4,2,6,7,2,3,1,1,8,2,2,1,933.9408288
4,2,6,8,2,2,0,1,6,2,2,1,1260.879671
4,2,6,9,1,4,0,0,9,2,2,1,1054.569476
4,2,6,10,1,4,1,1,2,1,1,1,1264.207188
4,2,6,11,2,2,0,0,5,1,1,1,1121.842121
4,2,6,12,1,2,1,0,10,2,2,1,1616.843794
4,2,6,13,2,2,1,0,6,2,2,1,979.7482835
4,2,6,14,2,1,0,1,8,2,2,1,592.9433182
4,2,6,15,1,3,0,0,4,1,2,0,1365.617415
4,2,6,16,1,4,0,1,2,1,1,1,1914.668868
4,2,6,17,2,1,0,0,7,2,2,1,601.9762475
4,2,6,18,1,3,0,0,1,1,1,1,941.548368
4,2,6,19,1,3,1,1,9,2,2,1,1332.52403
4,2,6,20,2,1,0,0,6,2,2,1,1707.526074
4,2,6,21,1,1,1,0,3,1,1,1,1747.254935
4,2,6,22,2,1,1,0,1,1,1,1,602.175341
4,2,6,23,1,4,0,0,2,1,1,1,1030.512548
4,2,6,24,2,4,1,0,4,1,1,1,594.041056
4,2,6,25,2,4,1,1,8,2,2,1,686.8928419
4,2,6,26,1,2,0,0,3,1,1,1,2008.084272
4,2,6,27,1,3,0,1,5,1,1,1,1524.652124
4,2,6,28,1,2,0,1,3,1,1,1,843.8474927
4,2,6,29,2,2,1,0,7,2,2,1,935.1296173
4,2,6,30,1,3,0,0,9,2,2,1,1310.062733
4,2,6,31,2,3,1,0,5,1,2,0,909.9781578
4,2,6,32,2,1,0,1,10,2,2,1,621.6396624
4,2,6,33,1,4,0,0,7,2,1,0,1881.304896
4,2,6,34,2,1,0,0,8,2,2,1,689.5022122
4,2,6,35,2,4,0,1,1,1,1,1,601.7838875
4,2,6,36,2,2,0,1,2,1,1,1,1526.196779
4,2,6,37,1,1,0,0,9,2,2,1,1558.152351
4,2,6,38,1,1,1,1,4,1,1,1,1115.490057
4,2,6,39,1,3,0,1,10,2,2,1,1090.434456
4,2,6,40,2,2,0,0,6,2,2,1,1418.785545
4,2,6,41,2,2,1,1,3,1,1,1,1406.718768
4,2,6,42,1,2,1,0,2,1,1,1,1979.103876
4,2,6,43,2,4,0,0,9,2,2,1,1416.547109
4,2,6,44,2,4,1,1,5,1,1,1,836.0447092
4,2,6,45,1,3,0,0,1,1,1,1,1038.49551
4,2,6,46,2,3,1,0,6,2,2,1,913.4701425
4,2,6,47,1,1,0,0,8,2,2,1,1057.83127
4,2,6,48,1,4,0,1,7,2,2,1,1891.901398
4,2,7,1,1,4,99,99,8,2,2,1,1555.155374
4,2,7,2,2,1,0,0,5,1,1,1,1336.801166
4,2,7,3,1,1,1,0,2,1,1,1,879.0645376
4,2,7,4,2,3,0,0,3,1,2,0,1816.659897
4,2,7,5,1,2,0,0,6,2,2,1,1266.826496
4,2,7,6,2,3,0,0,1,1,1,1,972.3965842
4,2,7,7,2,3,1,1,10,2,2,1,834.5632125
4,2,7,8,2,2,0,1,9,2,2,1,1125.071854
4,2,7,9,1,4,0,0,8,2,2,1,1388.272676
4,2,7,10,1,4,1,1,5,1,1,1,1056.344643
4,2,7,11,2,2,0,0,2,1,1,1,1513.885384
4,2,7,12,1,2,1,0,10,2,2,1,658.0163203
4,2,7,13,2,2,1,0,9,2,2,1,1259.12919
4,2,7,14,2,1,0,1,8,2,2,1,564.6005971
4,2,7,15,1,3,0,0,1,1,1,1,561.8620245
4,2,7,16,1,4,0,1,4,1,1,1,1383.576514
4,2,7,17,2,1,0,0,7,2,2,1,644.0830063
4,2,7,18,1,3,0,0,3,1,1,1,1799.298397
4,2,7,19,1,3,1,1,6,2,2,1,2027.533845
4,2,7,20,2,1,0,0,8,2,2,1,511.035243
4,2,7,21,1,1,1,0,5,1,1,1,1006.272556
4,2,7,22,2,1,1,0,2,1,1,1,993.6354319
4,2,7,23,1,4,0,0,3,1,1,1,741.8239564
4,2,7,24,2,4,1,0,4,1,1,1,1636.796068
4,2,7,25,2,4,1,1,6,2,2,1,1536.279357
4,2,7,26,1,2,0,0,1,1,1,1,958.8707536
4,2,7,27,1,3,0,1,5,1,1,1,1284.759948
4,2,7,28,1,2,0,1,3,1,1,1,2021.272831
4,2,7,29,2,2,1,0,10,2,2,1,1119.67518
4,2,7,30,1,3,0,0,9,2,2,1,1286.789031
4,2,7,31,2,3,1,0,4,1,1,1,1031.705825
4,2,7,32,2,1,0,1,7,2,2,1,722.9120303
4,2,7,33,1,4,0,0,9,2,2,1,882.1679549
4,2,7,34,2,1,0,0,10,2,2,1,634.442538
4,2,7,35,2,4,0,1,1,1,1,1,573.5466434
4,2,7,36,2,2,0,1,5,1,1,1,1098.942562
4,2,7,37,1,1,0,0,8,2,2,1,779.4599356
4,2,7,38,1,1,1,1,2,1,1,1,752.9385481
4,2,7,39,1,3,0,1,6,2,2,1,1623.617769
4,2,7,40,2,2,0,0,7,2,2,1,819.1939266
4,2,7,41,2,2,1,1,1,1,1,1,805.5103598
4,2,7,42,1,2,1,0,5,1,1,1,1465.251514
4,2,7,43,2,4,0,0,9,2,2,1,578.7859038
4,2,7,44,2,4,1,1,2,1,1,1,560.0278666
4,2,7,45,1,3,0,0,3,1,1,1,1213.78276
4,2,7,46,2,3,1,0,6,2,2,1,1609.82071
4,2,7,47,1,1,0,0,8,2,2,1,965.8720354
4,2,7,48,1,4,0,1,7,2,1,0,1051.880276
4,2,8,1,1,4,99,99,8,2,2,1,715.770646
4,2,8,2,2,1,0,0,5,1,1,1,835.2890518
4,2,8,3,1,1,1,0,4,1,1,1,1446.885251
4,2,8,4,2,3,0,0,5,1,1,1,1569.310865
4,2,8,5,1,2,0,0,8,2,2,1,1823.071273
4,2,8,6,2,3,0,0,3,1,1,1,835.0716848
4,2,8,7,2,3,1,1,7,2,2,1,949.4883688
4,2,8,8,2,2,0,1,10,2,2,1,907.523958
4,2,8,9,1,4,0,0,9,2,2,1,707.4112985
4,2,8,10,1,4,1,1,1,1,1,1,667.7773353
4,2,8,11,2,2,0,0,4,1,2,0,717.1665421
4,2,8,12,1,2,1,0,10,2,2,1,651.9636968
4,2,8,13,2,2,1,0,6,2,2,1,1117.382242
4,2,8,14,2,1,0,1,9,2,2,1,796.3081524
4,2,8,15,1,3,0,0,5,1,1,1,1776.268032
4,2,8,16,1,4,0,1,3,1,1,1,613.9112571
4,2,8,17,2,1,0,0,7,2,2,1,601.132106
4,2,8,18,1,3,0,0,2,1,1,1,2220.843353
4,2,8,19,1,3,1,1,8,2,2,1,1671.881988
4,2,8,20,2,1,0,0,9,2,2,1,968.7321167
4,2,8,21,1,1,1,0,1,1,1,1,741.8133756
4,2,8,22,2,1,1,0,5,1,1,1,868.4641905
4,2,8,23,1,4,0,0,2,1,1,1,621.1840883
4,2,8,24,2,4,1,0,1,1,1,1,591.7933229
4,2,8,25,2,4,1,1,7,2,2,1,524.4697016
4,2,8,26,1,2,0,0,4,1,1,1,1032.940138
4,2,8,27,1,3,0,1,3,1,1,1,1403.366566
4,2,8,28,1,2,0,1,1,1,1,1,671.1317822
4,2,8,29,2,2,1,0,10,2,2,1,655.9641548
4,2,8,30,1,3,0,0,8,2,2,1,1345.639171
4,2,8,31,2,3,1,0,2,1,1,1,1391.722021
4,2,8,32,2,1,0,1,6,2,2,1,1244.305568
4,2,8,33,1,4,0,0,10,2,2,1,742.2760027
4,2,8,34,2,1,0,0,8,2,2,1,724.7891491
4,2,8,35,2,4,0,1,5,1,1,1,747.3100787
4,2,8,36,2,2,0,1,4,1,1,1,1097.647656
4,2,8,37,1,1,0,0,9,2,1,0,937.248148
4,2,8,38,1,1,1,1,3,1,1,1,1527.335233
4,2,8,39,1,3,0,1,6,2,2,1,2246.369916
4,2,8,40,2,2,0,0,7,2,2,1,1224.551423
4,2,8,41,2,2,1,1,1,1,1,1,1307.657264
4,2,8,42,1,2,1,0,3,1,1,1,1387.550041
4,2,8,43,2,4,0,0,8,2,2,1,559.4398845
4,2,8,44,2,4,1,1,2,1,1,1,717.4332822
4,2,8,45,1,3,0,0,5,1,1,1,1908.517499
4,2,8,46,2,3,1,0,10,2,2,1,651.7075365
4,2,8,47,1,1,0,0,7,2,2,1,821.3682417
4,2,8,48,1,4,0,1,9,2,2,1,1640.299274
4,2,9,1,1,4,99,99,8,2,2,1,681.8161272
4,2,9,2,2,1,0,0,5,1,1,1,897.8209719
4,2,9,3,1,1,1,0,3,1,1,1,1225.546248
4,2,9,4,2,3,0,0,4,1,1,1,923.6655701
4,2,9,5,1,2,0,0,9,2,2,1,1026.918291
4,2,9,6,2,3,0,0,1,1,1,1,829.7740752
4,2,9,7,2,3,1,1,10,2,2,1,856.7350069
4,2,9,8,2,2,0,1,7,2,2,1,850.48874
4,2,9,9,1,4,0,0,8,2,2,1,1330.863958
4,2,9,10,1,4,1,1,2,1,1,1,697.9304887
4,2,9,11,2,2,0,0,3,1,1,1,1050.149673
4,2,9,12,1,2,1,0,7,2,2,1,1955.873135
4,2,9,13,2,2,1,0,9,2,2,1,1114.118525
4,2,9,14,2,1,0,1,10,2,2,1,570.1146116
4,2,9,15,1,3,0,0,4,1,1,1,1726.790981
4,2,9,16,1,4,0,1,1,1,1,1,909.7075704
4,2,9,17,2,1,0,0,6,2,2,1,1077.561368
4,2,9,18,1,3,0,0,5,1,1,1,1301.577388
4,2,9,19,1,3,1,1,8,2,2,1,1181.560127
4,2,9,20,2,1,0,0,9,2,2,1,690.2065733
4,2,9,21,1,1,1,0,2,1,1,1,1202.479014
4,2,9,22,2,1,1,0,1,1,1,1,782.6928748
4,2,9,23,1,4,0,0,2,1,1,1,987.4513615
4,2,9,24,2,4,1,0,4,1,1,1,694.5394939
4,2,9,25,2,4,1,1,7,2,2,1,734.9951575
4,2,9,26,1,2,0,0,5,1,1,1,1477.016283
4,2,9,27,1,3,0,1,3,1,1,1,1782.662417
4,2,9,28,1,2,0,1,5,1,1,1,1578.961593
4,2,9,29,2,2,1,0,6,2,1,0,1703.504777
4,2,9,30,1,3,0,0,8,2,2,1,1406.109948
4,2,9,31,2,3,1,0,3,1,1,1,865.8195529
4,2,9,32,2,1,0,1,10,2,2,1,643.2253988
4,2,9,33,1,4,0,0,8,2,2,1,1172.545152
4,2,9,34,2,1,0,0,7,2,2,1,1385.291409
4,2,9,35,2,4,0,1,2,1,1,1,1108.959736
4,2,9,36,2,2,0,1,1,1,1,1,1444.955874
4,2,9,37,1,1,0,0,9,2,2,1,967.1762399
4,2,9,38,1,1,1,1,4,1,1,1,1139.788397
4,2,9,39,1,3,0,1,6,2,2,1,1394.493936
4,2,9,40,2,2,0,0,10,2,2,1,622.7098275
4,2,9,41,2,2,1,1,1,1,1,1,952.5937093
4,2,9,42,1,2,1,0,4,1,2,0,1126.222171
4,2,9,43,2,4,0,0,8,2,2,1,565.2879653
4,2,9,44,2,4,1,1,3,1,1,1,610.0884117
4,2,9,45,1,3,0,0,2,1,1,1,1397.461098
4,2,9,46,2,3,1,0,9,2,2,1,938.0066898
4,2,9,47,1,1,0,0,7,2,2,1,1583.9697
4,2,9,48,1,4,0,1,6,2,2,1,772.245774
4,2,10,1,1,4,99,99,8,2,2,1,1271.728484
4,2,10,2,2,1,0,0,5,1,1,1,624.3997151
4,2,10,3,1,1,1,0,5,1,1,1,946.7020268
4,2,10,4,2,3,0,0,3,1,1,1,1128.486575
4,2,10,5,1,2,0,0,10,2,2,1,638.5683501
4,2,10,6,2,3,0,0,4,1,1,1,1152.884943
4,2,10,7,2,3,1,1,9,2,2,1,1318.784038
4,2,10,8,2,2,0,1,6,2,2,1,1124.789406
4,2,10,9,1,4,0,0,7,2,1,0,1804.377997
4,2,10,10,1,4,1,1,2,1,1,1,1583.162427
4,2,10,11,2,2,0,0,3,1,1,1,1187.447641
4,2,10,12,1,2,1,0,6,2,2,1,1775.505002
4,2,10,13,2,2,1,0,8,2,2,1,700.5347302
4,2,10,14,2,1,0,1,9,2,2,1,763.7168281
4,2,10,15,1,3,0,0,1,1,1,1,921.6118017
4,2,10,16,1,4,0,1,5,1,1,1,880.238899
4,2,10,17,2,1,0,0,10,2,2,1,649.6409429
4,2,10,18,1,3,0,0,2,1,1,1,1226.141283
4,2,10,19,1,3,1,1,7,2,2,1,1485.74881
4,2,10,20,2,1,0,0,10,2,2,1,597.9042966
4,2,10,21,1,1,1,0,4,1,1,1,1328.944842
4,2,10,22,2,1,1,0,3,1,1,1,839.8733241
4,2,10,23,1,4,0,0,4,1,1,1,705.9390992
4,2,10,24,2,4,1,0,5,1,1,1,824.6983225
4,2,10,25,2,4,1,1,8,2,2,1,939.2608805
4,2,10,26,1,2,0,0,1,1,1,1,920.9228298
4,2,10,27,1,3,0,1,2,1,1,1,1440.067031
4,2,10,28,1,2,0,1,4,1,1,1,985.4767807
4,2,10,29,2,2,1,0,9,2,2,1,1021.059952
4,2,10,30,1,3,0,0,6,2,2,1,959.3500523
4,2,10,31,2,3,1,0,1,1,1,1,812.3324253
4,2,10,32,2,1,0,1,7,2,2,1,679.0461354
4,2,10,33,1,4,0,0,8,2,2,1,1352.463801
4,2,10,34,2,1,0,0,6,2,2,1,1350.202284
4,2,10,35,2,4,0,1,2,1,1,1,755.435708
4,2,10,36,2,2,0,1,3,1,1,1,1217.342392
4,2,10,37,1,1,0,0,9,2,2,1,1020.185352
4,2,10,38,1,1,1,1,5,1,1,1,1679.292678
4,2,10,39,1,3,0,1,7,2,2,1,1672.335318
4,2,10,40,2,2,0,0,10,2,2,1,1216.951899
4,2,10,41,2,2,1,1,2,1,1,1,1131.91444
4,2,10,42,1,2,1,0,3,1,1,1,1706.251044
4,2,10,43,2,4,0,0,9,2,2,1,858.3232639
4,2,10,44,2,4,1,1,4,1,1,1,675.365638
4,2,10,45,1,3,0,0,1,1,1,1,916.3943436
4,2,10,46,2,3,1,0,7,2,2,1,1123.656081
4,2,10,47,1,1,0,0,10,2,2,1,1754.866962
4,2,10,48,1,4,0,1,6,2,2,1,1368.109126
5,2,1,1,2,1,99,99,9,2,2,1,2044.979983
5,2,1,2,1,1,1,0,3,1,1,1,2798.726125
5,2,1,3,2,1,1,0,10,2,2,1,1210.815599
5,2,1,4,2,3,0,1,7,2,2,1,1535.133529
5,2,1,5,2,3,1,1,6,2,2,1,1254.384938
5,2,1,6,1,4,0,0,8,2,2,1,3216.927854
5,2,1,7,2,2,0,0,4,1,1,1,1363.622315
5,2,1,8,2,2,1,1,1,1,1,1,913.8814732
5,2,1,9,2,2,1,1,10,2,1,0,666.6238122
5,2,1,10,1,4,0,0,7,2,2,1,3051.680221
5,2,1,11,1,4,1,1,2,1,1,1,2078.456486
5,2,1,12,2,3,0,0,5,1,1,1,1311.851685
5,2,1,13,1,1,0,0,9,2,2,1,2231.815918
5,2,1,14,2,1,1,0,3,1,1,1,1018.474625
5,2,1,15,2,1,1,1,8,2,2,1,838.4610768
5,2,1,16,2,4,0,1,4,1,1,1,1161.001596
5,2,1,17,1,4,1,0,2,1,1,1,2111.446959
5,2,1,18,2,4,1,0,1,1,1,1,719.9907154
5,2,1,19,1,3,0,0,5,1,1,1,3967.885731
5,2,1,20,2,3,1,0,6,2,2,1,989.6327294
5,2,1,21,1,2,0,0,4,1,1,1,1354.070975
5,2,1,22,2,3,0,0,3,1,1,1,672.4565057
5,2,1,23,2,3,1,1,7,2,2,1,978.1613089
5,2,1,24,1,2,0,0,10,2,2,1,1247.976447
5,2,1,25,2,1,0,0,2,1,1,1,930.6242131
5,2,1,26,2,1,1,1,8,2,2,1,1194.211358
5,2,1,27,1,2,0,0,9,2,2,1,2383.15781
5,2,1,28,1,4,0,1,5,1,1,1,2180.621088
5,2,1,29,1,4,1,1,6,2,1,0,1418.112604
5,2,1,30,2,2,0,0,1,1,1,1,725.4386861
5,2,1,31,2,3,0,1,5,1,1,1,1013.138866
5,2,1,32,1,2,0,0,7,2,2,1,3697.549615
5,2,1,33,1,4,0,1,2,1,1,1,3946.877716
5,2,1,34,1,1,0,1,3,1,1,1,3089.977279
5,2,1,35,2,1,1,0,10,2,2,1,979.3831194
5,2,1,36,1,2,0,0,4,1,1,1,1825.176659
5,2,1,37,2,2,1,0,9,2,2,1,3165.072906
5,2,1,38,1,3,0,0,6,2,1,0,3698.473588
5,2,1,39,1,4,0,1,1,1,1,1,1323.013725
5,2,1,40,2,4,1,0,3,1,1,1,658.1256455
5,2,1,41,2,4,1,1,8,2,2,1,852.7323045
5,2,1,42,1,3,0,0,2,1,1,1,1302.774512
5,2,1,43,1,1,0,1,6,2,2,1,1975.174911
5,2,1,44,1,1,1,1,5,1,1,1,2013.168361
5,2,1,45,2,2,0,0,9,2,2,1,1249.484874
5,2,1,46,1,2,1,0,7,2,2,1,3291.714423
5,2,1,47,1,3,0,1,4,1,1,1,2909.218334
5,2,1,48,1,3,1,1,8,2,2,1,1085.503614
5,2,2,1,2,1,99,99,9,2,2,1,899.483609
5,2,2,2,1,1,1,0,3,1,1,1,787.7545208
5,2,2,3,2,1,1,0,9,2,2,1,784.3321068
5,2,2,4,2,3,0,1,7,2,2,1,2157.712551
5,2,2,5,2,3,1,1,6,2,2,1,1828.09028
5,2,2,6,1,4,0,0,8,2,2,1,2839.525152
5,2,2,7,2,2,0,0,5,1,1,1,1266.913059
5,2,2,8,2,2,1,1,1,1,1,1,916.6517854
5,2,2,9,2,2,1,1,7,2,2,1,1107.710355
5,2,2,10,1,4,0,0,9,2,2,1,3700.28915
5,2,2,11,1,4,1,1,3,1,2,0,2301.184973
5,2,2,12,2,3,0,0,2,1,1,1,2156.937659
5,2,2,13,1,1,0,0,10,2,2,1,2659.807838
5,2,2,14,2,1,1,0,5,1,1,1,813.7389021
5,2,2,15,2,1,1,1,6,2,2,1,729.9646093
5,2,2,16,2,4,0,1,1,1,1,1,993.5078323
5,2,2,17,1,4,1,0,4,1,1,1,1550.877918
5,2,2,18,2,4,1,0,3,1,1,1,668.7333677
5,2,2,19,1,3,0,0,2,1,1,1,1638.458064
5,2,2,20,2,3,1,0,8,2,2,1,593.2456451
5,2,2,21,1,2,0,0,1,1,1,1,1086.253501
5,2,2,22,2,3,0,0,4,1,1,1,1191.170139
5,2,2,23,2,3,1,1,9,2,2,1,804.1407522
5,2,2,24,1,2,0,0,10,2,2,1,1656.901912
5,2,2,25,2,1,0,0,2,1,1,1,1851.397003
5,2,2,26,2,1,1,1,7,2,2,1,717.1364063
5,2,2,27,1,2,0,0,6,2,1,0,3629.137555
5,2,2,28,1,4,0,1,3,1,1,1,2832.351387
5,2,2,29,1,4,1,1,8,2,2,1,986.9082626
5,2,2,30,2,2,0,0,5,1,1,1,783.7986266
5,2,2,31,2,3,0,1,3,1,1,1,612.720225
5,2,2,32,1,2,0,0,6,2,1,0,1697.038898
5,2,2,33,1,4,0,1,2,1,2,0,1642.022184
5,2,2,34,1,1,0,1,1,1,1,1,748.4334642
5,2,2,35,2,1,1,0,7,2,2,1,690.9154216
5,2,2,36,1,2,0,0,4,1,1,1,2371.704344
5,2,2,37,2,2,1,0,8,2,2,1,1217.687358
5,2,2,38,1,3,0,0,10,2,2,1,2421.493019
5,2,2,39,1,4,0,1,5,1,1,1,3425.052331
5,2,2,40,2,4,1,0,3,1,1,1,997.0318777
5,2,2,41,2,4,1,1,9,2,2,1,929.5780929
5,2,2,42,1,3,0,0,2,1,1,1,2313.719185
5,2,2,43,1,1,0,1,7,2,2,1,2498.091303
5,2,2,44,1,1,1,1,4,1,1,1,930.0932977
5,2,2,45,2,2,0,0,9,2,2,1,1105.714294
5,2,2,46,1,2,1,0,6,2,1,0,2178.60579
5,2,2,47,1,3,0,1,1,1,1,1,1359.429176
5,2,2,48,1,3,1,1,10,2,2,1,925.8200089
5,2,3,1,2,1,99,99,9,2,2,1,2257.99779
5,2,3,2,1,1,1,0,3,1,1,1,1532.662978
5,2,3,3,2,1,1,0,10,2,2,1,675.321715
5,2,3,4,2,3,0,1,8,2,2,1,1380.919374
5,2,3,5,2,3,1,1,7,2,2,1,562.7783015
5,2,3,6,1,4,0,0,6,2,1,0,1233.233616
5,2,3,7,2,2,0,0,5,1,1,1,1027.404963
5,2,3,8,2,2,1,1,3,1,1,1,679.0031753
5,2,3,9,2,2,1,1,8,2,2,1,839.8621036
5,2,3,10,1,4,0,0,6,2,1,0,2771.03775
5,2,3,11,1,4,1,1,4,1,1,1,3200.628186
5,2,3,12,2,3,0,0,1,1,1,1,917.2721487
5,2,3,13,1,1,0,0,9,2,2,1,2228.662808
5,2,3,14,2,1,1,0,3,1,1,1,824.2251165
5,2,3,15,2,1,1,1,7,2,2,1,843.8526224
5,2,3,16,2,4,0,1,1,1,1,1,766.9180278
5,2,3,17,1,4,1,0,5,1,1,1,4365.039692
5,2,3,18,2,4,1,0,4,1,1,1,794.729514
5,2,3,19,1,3,0,0,2,1,1,1,1599.903884
5,2,3,20,2,3,1,0,10,2,2,1,715.6125894
5,2,3,21,1,2,0,0,5,1,1,1,963.3912267
5,2,3,22,2,3,0,0,1,1,1,1,1713.567797
5,2,3,23,2,3,1,1,8,2,2,1,689.6714894
5,2,3,24,1,2,0,0,7,2,2,1,4579.119008
5,2,3,25,2,1,0,0,2,1,1,1,1369.159735
5,2,3,26,2,1,1,1,6,2,2,1,1086.404824
5,2,3,27,1,2,0,0,10,2,2,1,2015.496244
5,2,3,28,1,4,0,1,3,1,1,1,2243.255599
5,2,3,29,1,4,1,1,9,2,2,1,2310.361853
5,2,3,30,2,2,0,0,4,1,1,1,1335.038823
5,2,3,31,2,3,0,1,5,1,1,1,1414.0025
5,2,3,32,1,2,0,0,6,2,1,0,2426.128908
5,2,3,33,1,4,0,1,4,1,1,1,2573.374481
5,2,3,34,1,1,0,1,2,1,1,1,1475.021825
5,2,3,35,2,1,1,0,10,2,2,1,724.2765082
5,2,3,36,1,2,0,0,3,1,1,1,2235.988218
5,2,3,37,2,2,1,0,7,2,2,1,991.2835034
5,2,3,38,1,3,0,0,8,2,2,1,3243.784912
5,2,3,39,1,4,0,1,1,1,1,1,1646.676347
5,2,3,40,2,4,1,0,4,1,1,1,937.4373024
5,2,3,41,2,4,1,1,9,2,2,1,1008.706237
5,2,3,42,1,3,0,0,5,1,1,1,1772.726996
5,2,3,43,1,1,0,1,10,2,2,1,1746.44157
5,2,3,44,1,1,1,1,2,1,1,1,1041.361682
5,2,3,45,2,2,0,0,9,2,2,1,1380.256051
5,2,3,46,1,2,1,0,6,2,2,1,2178.033518
5,2,3,47,1,3,0,1,1,1,1,1,664.0141215
5,2,3,48,1,3,1,1,7,2,2,1,2130.377159
5,2,4,1,2,1,99,99,9,2,2,1,1760.134113
5,2,4,2,1,1,1,0,3,1,1,1,1262.820589
5,2,4,3,2,1,1,0,6,2,2,1,1000.758862
5,2,4,4,2,3,0,1,10,2,2,1,1173.058112
5,2,4,5,2,3,1,1,8,2,2,1,978.958643
5,2,4,6,1,4,0,0,7,2,1,0,3752.920273
5,2,4,7,2,2,0,0,3,1,1,1,910.5642159
5,2,4,8,2,2,1,1,4,1,1,1,743.3714969
5,2,4,9,2,2,1,1,10,2,2,1,750.2217758
5,2,4,10,1,4,0,0,6,2,1,0,3500.2778
5,2,4,11,1,4,1,1,2,1,1,1,3332.790771
5,2,4,12,2,3,0,0,1,1,1,1,955.5679234
5,2,4,13,1,1,0,0,8,2,2,1,2354.019678
5,2,4,14,2,1,1,0,4,1,1,1,1264.304009
5,2,4,15,2,1,1,1,9,2,2,1,842.948528
5,2,4,16,2,4,0,1,3,1,1,1,1589.467685
5,2,4,17,1,4,1,0,1,1,1,1,898.8449713
5,2,4,18,2,4,1,0,5,1,1,1,778.8626552
5,2,4,19,1,3,0,0,2,1,1,1,1817.005825
5,2,4,20,2,3,1,0,7,2,2,1,924.0730545
5,2,4,21,1,2,0,0,4,1,1,1,2260.036812
5,2,4,22,2,3,0,0,1,1,1,1,1470.163119
5,2,4,23,2,3,1,1,10,2,2,1,919.758087
5,2,4,24,1,2,0,0,6,2,1,0,1423.365007
5,2,4,25,2,1,0,0,5,1,1,1,2674.524381
5,2,4,26,2,1,1,1,9,2,2,1,715.8081559
5,2,4,27,1,2,0,0,8,2,2,1,1339.467283
5,2,4,28,1,4,0,1,3,1,1,1,2330.866203
5,2,4,29,1,4,1,1,7,2,2,1,1882.621605
5,2,4,30,2,2,0,0,2,1,1,1,1267.656853
5,2,4,31,2,3,0,1,4,1,1,1,1717.29318
5,2,4,32,1,2,0,0,8,2,2,1,3100.740492
5,2,4,33,1,4,0,1,5,1,1,1,1781.529735
5,2,4,34,1,1,0,1,3,1,1,1,2610.455821
5,2,4,35,2,1,1,0,10,2,2,1,878.5785064
5,2,4,36,1,2,0,0,2,1,1,1,1336.633813
5,2,4,37,2,2,1,0,6,2,2,1,1607.268727
5,2,4,38,1,3,0,0,9,2,2,1,1395.905863
5,2,4,39,1,4,0,1,1,1,1,1,1320.56754
5,2,4,40,2,4,1,0,2,1,1,1,712.1311845
5,2,4,41,2,4,1,1,7,2,1,0,560.3350019
5,2,4,42,1,3,0,0,1,1,1,1,1414.048025
5,2,4,43,1,1,0,1,9,2,2,1,2810.20075
5,2,4,44,1,1,1,1,4,1,1,1,1358.890246
5,2,4,45,2,2,0,0,6,2,2,1,1309.16024
5,2,4,46,1,2,1,0,10,2,2,1,1429.439112
5,2,4,47,1,3,0,1,5,1,1,1,4249.343489
5,2,4,48,1,3,1,1,8,2,2,1,3932.180409
5,2,5,1,2,1,99,99,9,2,2,1,2271.04336
5,2,5,2,1,1,1,0,3,1,1,1,880.6752367
5,2,5,3,2,1,1,0,6,2,2,1,1457.980606
5,2,5,4,2,3,0,1,7,2,2,1,1044.254784
5,2,5,5,2,3,1,1,9,2,2,1,1999.252038
5,2,5,6,1,4,0,0,10,2,2,1,1811.98746
5,2,5,7,2,2,0,0,4,1,1,1,1063.886779
5,2,5,8,2,2,1,1,2,1,1,1,754.5495667
5,2,5,9,2,2,1,1,9,2,2,1,1200.589072
5,2,5,10,1,4,0,0,8,2,99,99,99000
5,2,5,11,1,4,1,1,1,1,1,1,1240.644305
5,2,5,12,2,3,0,0,3,1,1,1,1011.950398
5,2,5,13,1,1,0,0,6,2,2,1,1664.266114
5,2,5,14,2,1,1,0,5,1,2,0,1010.435879
5,2,5,15,2,1,1,1,10,2,2,1,1069.502103
5,2,5,16,2,4,0,1,2,1,1,1,887.1298945
5,2,5,17,1,4,1,0,4,1,1,1,2912.604199
5,2,5,18,2,4,1,0,3,1,1,1,680.4859545
5,2,5,19,1,3,0,0,1,1,1,1,1322.214788
5,2,5,20,2,3,1,0,7,2,2,1,633.7327268
5,2,5,21,1,2,0,0,4,1,1,1,932.6318158
5,2,5,22,2,3,0,0,2,1,1,1,843.1351176
5,2,5,23,2,3,1,1,9,2,2,1,861.8213404
5,2,5,24,1,2,0,0,7,2,2,1,4408.410899
5,2,5,25,2,1,0,0,5,1,1,1,1509.270976
5,2,5,26,2,1,1,1,6,2,2,1,869.0752555
5,2,5,27,1,2,0,0,10,2,2,1,1551.067392
5,2,5,28,1,4,0,1,3,1,1,1,3669.70094
5,2,5,29,1,4,1,1,8,2,2,1,822.9924059
5,2,5,30,2,2,0,0,1,1,1,1,930.5870235
5,2,5,31,2,3,0,1,4,1,1,1,1818.274763
5,2,5,32,1,2,0,0,6,2,2,1,2998.051388
5,2,5,33,1,4,0,1,5,1,1,1,3290.914523
5,2,5,34,1,1,0,1,2,1,1,1,2308.158042
5,2,5,35,2,1,1,0,9,2,2,1,1108.071673
5,2,5,36,1,2,0,0,1,1,1,1,1228.389657
5,2,5,37,2,2,1,0,10,2,2,1,743.864581
5,2,5,38,1,3,0,0,7,2,2,1,2247.389106
5,2,5,39,1,4,0,1,3,1,1,1,3058.497158
5,2,5,40,2,4,1,0,2,1,1,1,676.5159536
5,2,5,41,2,4,1,1,8,2,2,1,694.3708574
5,2,5,42,1,3,0,0,4,1,1,1,1511.215742
5,2,5,43,1,1,0,1,10,2,2,1,1670.687108
5,2,5,44,1,1,1,1,5,1,1,1,952.2990771
5,2,5,45,2,2,0,0,8,2,2,1,958.7143008
5,2,5,46,1,2,1,0,7,2,2,1,1397.24886
5,2,5,47,1,3,0,1,3,1,1,1,1905.984753
5,2,5,48,1,3,1,1,9,2,2,1,2250.598001
5,2,6,1,2,1,99,99,9,2,2,1,2119.974301
5,2,6,2,1,1,1,0,3,1,1,1,886.8137812
5,2,6,3,2,1,1,0,8,2,2,1,671.474183
5,2,6,4,2,3,0,1,10,2,2,1,985.3895763
5,2,6,5,2,3,1,1,6,2,2,1,1062.324812
5,2,6,6,1,4,0,0,9,2,2,1,944.5703514
5,2,6,7,2,2,0,0,4,1,1,1,3015.383393
5,2,6,8,2,2,1,1,3,1,1,1,1459.132204
5,2,6,9,2,2,1,1,8,2,2,1,1605.364678
5,2,6,10,1,4,0,0,6,2,1,0,1785.795009
5,2,6,11,1,4,1,1,1,1,1,1,789.8201533
5,2,6,12,2,3,0,0,2,1,1,1,1418.757973
5,2,6,13,1,1,0,0,10,2,2,1,1198.391353
5,2,6,14,2,1,1,0,3,1,1,1,834.9630004
5,2,6,15,2,1,1,1,9,2,2,1,1293.958629
5,2,6,16,2,4,0,1,1,1,1,1,847.0089389
5,2,6,17,1,4,1,0,4,1,1,1,945.4023112
5,2,6,18,2,4,1,0,5,1,1,1,848.3727742
5,2,6,19,1,3,0,0,2,1,1,1,1754.686464
5,2,6,20,2,3,1,0,7,2,2,1,1104.984927
5,2,6,21,1,2,0,0,3,1,1,1,1289.68566
5,2,6,22,2,3,0,0,5,1,1,1,746.2274088
5,2,6,23,2,3,1,1,6,2,2,1,833.3394779
5,2,6,24,1,2,0,0,8,2,2,1,1124.17289
5,2,6,25,2,1,0,0,1,1,1,1,1067.733989
5,2,6,26,2,1,1,1,9,2,2,1,1309.664225
5,2,6,27,1,2,0,0,10,2,2,1,1302.027191
5,2,6,28,1,4,0,1,2,1,1,1,2622.627754
5,2,6,29,1,4,1,1,7,2,2,1,1746.449265
5,2,6,30,2,2,0,0,4,1,1,1,1041.099431
5,2,6,31,2,3,0,1,5,1,1,1,843.6794979
5,2,6,32,1,2,0,0,8,2,2,1,927.0001408
5,2,6,33,1,4,0,1,1,1,1,1,1622.667188
5,2,6,34,1,1,0,1,3,1,1,1,1305.90005
5,2,6,35,2,1,1,0,6,2,2,1,1562.626657
5,2,6,36,1,2,0,0,2,1,1,1,1440.624877
5,2,6,37,2,2,1,0,10,2,2,1,755.5427887
5,2,6,38,1,3,0,0,7,2,2,1,1537.183772
5,2,6,39,1,4,0,1,4,1,1,1,1576.531438
5,2,6,40,2,4,1,0,2,1,1,1,669.810907
5,2,6,41,2,4,1,1,9,2,2,1,927.3781292
5,2,6,42,1,3,0,0,5,1,1,1,3599.24601
5,2,6,43,1,1,0,1,7,2,2,1,1075.602497
5,2,6,44,1,1,1,1,1,1,1,1,1517.278625
5,2,6,45,2,2,0,0,8,2,2,1,1733.24115
5,2,6,46,1,2,1,0,6,2,2,1,2460.216477
5,2,6,47,1,3,0,1,3,1,1,1,2382.803225
5,2,6,48,1,3,1,1,10,2,2,1,1739.502806
5,2,7,1,2,1,99,99,9,2,2,1,1149.894699
5,2,7,2,1,1,1,0,3,1,1,1,899.1581984
5,2,7,3,2,1,1,0,8,2,2,1,739.7724316
5,2,7,4,2,3,0,1,6,2,2,1,1450.360564
5,2,7,5,2,3,1,1,7,2,2,1,1124.664051
5,2,7,6,1,4,0,0,10,2,2,1,844.2770978
5,2,7,7,2,2,0,0,3,1,1,1,1047.209121
5,2,7,8,2,2,1,1,2,1,1,1,1170.145774
5,2,7,9,2,2,1,1,7,2,2,1,671.9839387
5,2,7,10,1,4,0,0,6,2,2,1,2425.490271
5,2,7,11,1,4,1,1,1,1,1,1,717.4182134
5,2,7,12,2,3,0,0,4,1,1,1,1164.923826
5,2,7,13,1,1,0,0,8,2,2,1,1234.487486
5,2,7,14,2,1,1,0,2,1,2,0,965.6008082
5,2,7,15,2,1,1,1,9,2,2,1,1089.9776
5,2,7,16,2,4,0,1,4,1,1,1,994.8428143
5,2,7,17,1,4,1,0,1,1,1,1,735.77582
5,2,7,18,2,4,1,0,5,1,1,1,606.7573689
5,2,7,19,1,3,0,0,3,1,1,1,1475.289847
5,2,7,20,2,3,1,0,10,2,2,1,612.5490237
5,2,7,21,1,2,0,0,4,1,1,1,937.0375136
5,2,7,22,2,3,0,0,5,1,1,1,920.014888
5,2,7,23,2,3,1,1,8,2,2,1,655.7294745
5,2,7,24,1,2,0,0,6,2,2,1,2697.490945
5,2,7,25,2,1,0,0,2,1,1,1,1754.170296
5,2,7,26,2,1,1,1,9,2,2,1,1104.416822
5,2,7,27,1,2,0,0,7,2,2,1,1944.10548
5,2,7,28,1,4,0,1,1,1,1,1,622.8630748
5,2,7,29,1,4,1,1,10,2,2,1,714.5674303
5,2,7,30,2,2,0,0,3,1,1,1,1026.531967
5,2,7,31,2,3,0,1,5,1,1,1,2006.217414
5,2,7,32,1,2,0,0,6,2,2,1,2258.289537
5,2,7,33,1,4,0,1,2,1,1,1,1701.077187
5,2,7,34,1,1,0,1,1,1,1,1,788.98146
5,2,7,35,2,1,1,0,8,2,2,1,1106.003797
5,2,7,36,1,2,0,0,3,1,1,1,2266.316742
5,2,7,37,2,2,1,0,10,2,2,1,1300.131158
5,2,7,38,1,3,0,0,7,2,2,1,3380.557095
5,2,7,39,1,4,0,1,4,1,1,1,2938.365763
5,2,7,40,2,4,1,0,2,1,1,1,985.3466162
5,2,7,41,2,4,1,1,9,2,2,1,838.2847467
5,2,7,42,1,3,0,0,5,1,1,1,2873.370025
5,2,7,43,1,1,0,1,7,2,2,1,2035.430565
5,2,7,44,1,1,1,1,4,1,1,1,893.4239307
5,2,7,45,2,2,0,0,6,2,99,99,99000
5,2,7,46,1,2,1,0,8,2,2,1,986.5591293
5,2,7,47,1,3,0,1,3,1,1,1,1159.417827
5,2,7,48,1,3,1,1,9,2,2,1,1021.438901
5,2,8,1,2,1,99,99,9,2,2,1,1061.777226
5,2,8,2,1,1,1,0,3,1,1,1,607.9076845
5,2,8,3,2,1,1,0,8,2,2,1,2460.723026
5,2,8,4,2,3,0,1,6,2,2,1,1214.697114
5,2,8,5,2,3,1,1,9,2,2,1,1594.383458
5,2,8,6,1,4,0,0,7,2,2,1,1143.32719
5,2,8,7,2,2,0,0,4,1,1,1,1254.61513
5,2,8,8,2,2,1,1,3,1,1,1,704.5643628
5,2,8,9,2,2,1,1,6,2,2,1,1112.821695
5,2,8,10,1,4,0,0,10,2,2,1,1521.134811
5,2,8,11,1,4,1,1,5,1,1,1,1856.877674
5,2,8,12,2,3,0,0,2,1,1,1,1539.48248
5,2,8,13,1,1,0,0,9,2,2,1,2266.295902
5,2,8,14,2,1,1,0,3,1,1,1,683.8093027
5,2,8,15,2,1,1,1,8,2,2,1,580.7890175
5,2,8,16,2,4,0,1,2,1,1,1,962.3553641
5,2,8,17,1,4,1,0,4,1,1,1,2432.863129
5,2,8,18,2,4,1,0,1,1,1,1,612.0351003
5,2,8,19,1,3,0,0,5,1,1,1,1424.338031
5,2,8,20,2,3,1,0,7,2,2,1,667.4903976
5,2,8,21,1,2,0,0,2,1,1,1,957.5431449
5,2,8,22,2,3,0,0,3,1,1,1,755.0958702
5,2,8,23,2,3,1,1,6,2,2,1,833.0073357
5,2,8,24,1,2,0,0,8,2,2,1,1220.246715
5,2,8,25,2,1,0,0,4,1,1,1,1135.928363
5,2,8,26,2,1,1,1,10,2,2,1,878.1652525
5,2,8,27,1,2,0,0,7,2,2,1,2023.552624
5,2,8,28,1,4,0,1,5,1,1,1,1931.642442
5,2,8,29,1,4,1,1,9,2,2,1,1130.560542
5,2,8,30,2,2,0,0,1,1,1,1,1201.452771
5,2,8,31,2,3,0,1,4,1,1,1,1349.531585
5,2,8,32,1,2,0,0,6,2,2,1,1307.841288
5,2,8,33,1,4,0,1,2,1,1,1,1660.317915
5,2,8,34,1,1,0,1,5,1,1,1,1166.517213
5,2,8,35,2,1,1,0,10,2,2,1,740.0782844
5,2,8,36,1,2,0,0,3,1,1,1,1115.204401
5,2,8,37,2,2,1,0,9,2,2,1,1114.990559
5,2,8,38,1,3,0,0,7,2,2,1,1953.003437
5,2,8,39,1,4,0,1,1,1,1,1,991.300175
5,2,8,40,2,4,1,0,2,1,1,1,1084.608177
5,2,8,41,2,4,1,1,8,2,2,1,1581.524797
5,2,8,42,1,3,0,0,3,1,1,1,2226.66771
5,2,8,43,1,1,0,1,10,2,2,1,822.2062914
5,2,8,44,1,1,1,1,4,1,1,1,889.7953704
5,2,8,45,2,2,0,0,9,2,2,1,2050.950854
5,2,8,46,1,2,1,0,8,2,1,0,597.1717238
5,2,8,47,1,3,0,1,1,1,1,1,1872.833339
5,2,8,48,1,3,1,1,6,2,2,1,1705.895818
5,2,9,1,2,1,99,99,9,2,2,1,1180.79902
5,2,9,2,1,1,1,0,3,1,1,1,1226.164367
5,2,9,3,2,1,1,0,6,2,2,1,861.778059
5,2,9,4,2,3,0,1,8,2,2,1,1048.042684
5,2,9,5,2,3,1,1,10,2,2,1,1274.267322
5,2,9,6,1,4,0,0,7,2,2,1,1220.280378
5,2,9,7,2,2,0,0,2,1,1,1,1095.557337
5,2,9,8,2,2,1,1,1,1,1,1,1328.514916
5,2,9,9,2,2,1,1,9,2,2,1,928.1469304
5,2,9,10,1,4,0,0,8,2,2,1,1527.772532
5,2,9,11,1,4,1,1,3,1,1,1,663.3972852
5,2,9,12,2,3,0,0,5,1,1,1,1161.994496
5,2,9,13,1,1,0,0,10,2,2,1,1328.322555
5,2,9,14,2,1,1,0,4,1,1,1,799.5494269
5,2,9,15,2,1,1,1,6,2,2,1,787.8022902
5,2,9,16,2,4,0,1,1,1,1,1,617.1169449
5,2,9,17,1,4,1,0,5,1,1,1,1627.664714
5,2,9,18,2,4,1,0,3,1,1,1,926.5926564
5,2,9,19,1,3,0,0,2,1,1,1,1726.601184
5,2,9,20,2,3,1,0,7,2,2,1,646.1579353
5,2,9,21,1,2,0,0,3,1,1,1,2752.994653
5,2,9,22,2,3,0,0,5,1,1,1,854.6677725
5,2,9,23,2,3,1,1,9,2,2,1,856.2105047
5,2,9,24,1,2,0,0,8,2,2,1,1226.507409
5,2,9,25,2,1,0,0,1,1,1,1,694.0694936
5,2,9,26,2,1,1,1,10,2,2,1,735.3523066
5,2,9,27,1,2,0,0,7,2,2,1,1549.28421
5,2,9,28,1,4,0,1,4,1,1,1,1819.994466
5,2,9,29,1,4,1,1,6,2,2,1,1926.729874
5,2,9,30,2,2,0,0,2,1,1,1,1566.497272
5,2,9,31,2,3,0,1,5,1,1,1,1508.023839
5,2,9,32,1,2,0,0,10,2,2,1,812.5658231
5,2,9,33,1,4,0,1,4,1,1,1,1984.060045
5,2,9,34,1,1,0,1,1,1,1,1,749.00766
5,2,9,35,2,1,1,0,9,2,2,1,842.5295027
5,2,9,36,1,2,0,0,3,1,1,1,2285.563694
5,2,9,37,2,2,1,0,7,2,2,1,1117.254002
5,2,9,38,1,3,0,0,6,2,2,1,1900.648671
5,2,9,39,1,4,0,1,2,1,1,1,1444.282291
5,2,9,40,2,4,1,0,5,1,1,1,1518.309677
5,2,9,41,2,4,1,1,8,2,2,1,837.561151
5,2,9,42,1,3,0,0,4,1,1,1,2039.795225
5,2,9,43,1,1,0,1,6,2,2,1,1121.995689
5,2,9,44,1,1,1,1,2,1,1,1,1465.255039
5,2,9,45,2,2,0,0,8,2,2,1,1145.871478
5,2,9,46,1,2,1,0,9,2,2,1,1520.190963
5,2,9,47,1,3,0,1,1,1,1,1,783.2209039
5,2,9,48,1,3,1,1,7,2,2,1,851.5441585
5,2,10,1,2,1,99,99,9,2,2,1,1085.370565
5,2,10,2,1,1,1,0,3,1,1,1,1229.952907
5,2,10,3,2,1,1,0,9,2,2,1,912.5609184
5,2,10,4,2,3,0,1,8,2,2,1,1192.18997
5,2,10,5,2,3,1,1,6,2,2,1,756.3349931
5,2,10,6,1,4,0,0,10,2,2,1,1338.027144
5,2,10,7,2,2,0,0,2,1,1,1,1160.304288
5,2,10,8,2,2,1,1,4,1,1,1,597.9193645
5,2,10,9,2,2,1,1,8,2,2,1,737.4608992
5,2,10,10,1,4,0,0,6,2,2,1,1543.799371
5,2,10,11,1,4,1,1,1,1,1,1,645.9796811
5,2,10,12,2,3,0,0,5,1,1,1,1272.32352
5,2,10,13,1,1,0,0,9,2,2,1,2217.797005
5,2,10,14,2,1,1,0,4,1,1,1,708.3352702
5,2,10,15,2,1,1,1,7,2,2,1,716.2685394
5,2,10,16,2,4,0,1,2,1,1,1,971.2276738
5,2,10,17,1,4,1,0,1,1,1,1,647.7397801
5,2,10,18,2,4,1,0,5,1,1,1,609.9701105
5,2,10,19,1,3,0,0,3,1,1,1,1093.556146
5,2,10,20,2,3,1,0,10,2,2,1,797.8213886
5,2,10,21,1,2,0,0,4,1,1,1,1058.433359
5,2,10,22,2,3,0,0,5,1,1,1,1580.09139
5,2,10,23,2,3,1,1,7,2,2,1,720.6960376
5,2,10,24,1,2,0,0,6,2,2,1,2087.508012
5,2,10,25,2,1,0,0,2,1,1,1,1176.008923
5,2,10,26,2,1,1,1,10,2,2,1,661.337425
5,2,10,27,1,2,0,0,9,2,2,1,1734.636084
5,2,10,28,1,4,0,1,3,1,1,1,1229.291187
5,2,10,29,1,4,1,1,8,2,2,1,991.8913627
5,2,10,30,2,2,0,0,1,1,1,1,948.1405634
5,2,10,31,2,3,0,1,3,1,1,1,705.6925567
5,2,10,32,1,2,0,0,7,2,2,1,897.6356648
5,2,10,33,1,4,0,1,4,1,1,1,2066.010118
5,2,10,34,1,1,0,1,2,1,1,1,1338.789533
5,2,10,35,2,1,1,0,6,2,2,1,689.1931538
5,2,10,36,1,2,0,0,5,1,1,1,3369.959954
5,2,10,37,2,2,1,0,9,2,2,1,1182.818486
5,2,10,38,1,3,0,0,10,2,2,1,1562.838254
5,2,10,39,1,4,0,1,1,1,1,1,912.6965329
5,2,10,40,2,4,1,0,3,1,1,1,759.959707
5,2,10,41,2,4,1,1,8,2,2,1,637.9252253
5,2,10,42,1,3,0,0,1,1,1,1,1400.146771
5,2,10,43,1,1,0,1,6,2,2,1,2291.955835
5,2,10,44,1,1,1,1,2,1,1,1,2348.012899
5,2,10,45,2,2,0,0,9,2,2,1,1025.64743
5,2,10,46,1,2,1,0,8,2,2,1,2085.038423
5,2,10,47,1,3,0,1,4,1,1,1,3101.240951
5,2,10,48,1,3,1,1,7,2,2,1,2677.055525
6,1,1,1,2,1,99,99,4,1,1,1,2230.173801
6,1,1,2,1,3,0,0,2,1,1,1,1639.567664
6,1,1,3,1,4,0,1,9,2,2,1,1570.233875
6,1,1,4,1,4,1,1,10,2,2,1,1184.039654
6,1,1,5,2,2,0,0,3,1,1,1,3372.888963
6,1,1,6,2,2,1,1,6,2,2,1,1466.752246
6,1,1,7,2,1,0,1,7,2,2,1,1132.348211
6,1,1,8,1,3,0,0,5,1,1,1,1427.743133
6,1,1,9,2,4,0,0,1,1,1,1,1166.94201
6,1,1,10,1,3,0,0,8,2,2,1,1180.571715
6,1,1,11,2,3,1,0,2,1,1,1,1154.273465
6,1,1,12,2,1,0,1,5,1,1,1,1248.456707
6,1,1,13,1,1,1,0,10,2,2,1,938.8421755
6,1,1,14,1,1,1,1,4,1,1,1,1058.075888
6,1,1,15,2,2,0,0,6,2,2,1,1916.429289
6,1,1,16,2,4,0,1,3,1,1,1,1803.737436
6,1,1,17,2,4,1,1,1,1,1,1,1192.576614
6,1,1,18,1,4,1,0,9,2,2,1,1117.11935
6,1,1,19,2,2,0,0,2,1,1,1,1716.794644
6,1,1,20,1,2,1,0,4,1,1,1,1924.846664
6,1,1,21,1,2,1,1,7,2,2,1,1500.392576
6,1,1,22,2,3,0,0,5,1,1,1,1172.390301
6,1,1,23,1,1,0,0,8,2,2,1,874.0397599
6,1,1,24,1,1,1,1,3,1,1,1,979.6495382
6,1,1,25,2,1,1,0,6,2,2,1,2825.819784
6,1,1,26,1,3,0,0,9,2,2,1,1213.09443
6,1,1,27,1,3,1,1,8,2,2,1,865.7624871
6,1,1,28,1,3,1,1,10,2,2,1,762.9191745
6,1,1,29,2,4,0,0,1,1,1,1,961.5169941
6,1,1,30,2,2,0,1,3,1,2,0,3719.744174
6,1,1,31,2,2,1,1,2,1,1,1,2351.696604
6,1,1,32,1,4,0,0,4,1,1,1,1925.709081
6,1,1,33,1,4,1,1,7,2,2,1,853.6309488
6,1,1,34,2,4,1,0,9,2,2,1,1847.617759
6,1,1,35,1,3,0,0,10,2,2,1,1082.665014
6,1,1,36,1,3,1,1,1,1,1,1,1659.654912
6,1,1,37,2,3,1,0,5,1,2,0,3726.174786
6,1,1,38,2,1,0,1,4,1,1,1,2309.670316
6,1,1,39,2,2,0,1,7,2,2,1,1726.123169
6,1,1,40,1,2,1,0,6,2,2,1,2830.134111
6,1,1,41,1,1,0,1,8,2,2,1,1241.854574
6,1,1,42,2,1,1,0,1,1,1,1,917.0557428
6,1,1,43,2,2,0,1,7,2,2,1,1764.346489
6,1,1,44,1,2,1,0,5,1,1,1,1106.968485
6,1,1,45,2,4,0,0,9,2,2,1,1826.903095
6,1,1,46,2,3,0,1,10,2,2,1,2438.645487
6,1,1,47,1,1,0,0,2,1,1,1,1194.026693
6,1,1,48,1,4,0,1,8,2,2,1,990.9635438
6,1,2,1,2,1,99,99,4,1,1,1,3803.535137
6,1,2,2,1,3,0,0,5,1,1,1,2080.45383
6,1,2,3,1,4,0,1,9,2,2,1,1090.045246
6,1,2,4,1,4,1,1,6,2,2,1,1931.037147
6,1,2,5,2,2,0,0,2,1,1,1,1530.828499
6,1,2,6,2,2,1,1,8,2,2,1,2346.12969
6,1,2,7,2,1,0,1,9,2,2,1,1417.515645
6,1,2,8,1,3,0,0,1,1,2,0,957.0834041
6,1,2,9,2,4,0,0,4,1,1,1,2618.934432
6,1,2,10,1,3,0,0,7,2,2,1,686.5453105
6,1,2,11,2,3,1,0,1,1,1,1,1151.471734
6,1,2,12,2,1,0,1,4,1,1,1,1333.81028
6,1,2,13,1,1,1,0,9,2,2,1,1844.223237
6,1,2,14,1,1,1,1,2,1,1,1,1047.063569
6,1,2,15,2,2,0,0,7,2,2,1,2522.546098
6,1,2,16,2,4,0,1,3,1,1,1,1026.217458
6,1,2,17,2,4,1,1,5,1,1,1,1317.47278
6,1,2,18,1,4,1,0,6,2,2,1,1045.634009
6,1,2,19,2,2,0,0,3,1,1,1,2304.18676
6,1,2,20,1,2,1,0,2,1,1,1,1744.534957
6,1,2,21,1,2,1,1,8,2,1,0,1719.924351
6,1,2,22,2,3,0,0,4,1,1,1,2367.031906
6,1,2,23,1,1,0,0,10,2,2,1,668.7189396
6,1,2,24,1,1,1,1,5,1,1,1,1766.794917
6,1,2,25,2,1,1,0,7,2,2,1,1020.00838
6,1,2,26,1,3,0,0,10,2,2,1,1174.938437
6,1,2,27,1,3,1,1,8,2,2,1,1060.605749
6,1,2,28,1,3,1,1,9,2,2,1,918.8017342
6,1,2,29,2,4,0,0,1,1,1,1,990.8320969
6,1,2,30,2,2,0,1,2,1,2,0,1451.349617
6,1,2,31,2,2,1,1,4,1,1,1,1740.747699
6,1,2,32,1,4,0,0,3,1,1,1,940.0819391
6,1,2,33,1,4,1,1,6,2,2,1,2075.124802
6,1,2,34,2,4,1,0,7,2,2,1,1676.861882
6,1,2,35,1,3,0,0,9,2,2,1,934.0613754
6,1,2,36,1,3,1,1,5,1,1,1,1421.437235
6,1,2,37,2,3,1,0,1,1,1,1,1041.179901
6,1,2,38,2,1,0,1,4,1,1,1,1027.618163
6,1,2,39,2,2,0,1,8,2,2,1,1207.320409
6,1,2,40,1,2,1,0,10,2,2,1,811.4539795
6,1,2,41,1,1,0,1,6,2,2,1,1391.843528
6,1,2,42,2,1,1,0,3,1,1,1,1908.837139
6,1,2,43,2,2,0,1,10,2,2,1,1941.203721
6,1,2,44,1,2,1,0,5,1,1,1,1148.187499
6,1,2,45,2,4,0,0,9,2,2,1,1218.495273
6,1,2,46,2,3,0,1,8,2,2,1,2174.284411
6,1,2,47,1,1,0,0,2,1,1,1,971.9089512
6,1,2,48,1,4,0,1,6,2,2,1,1601.537987
6,1,3,1,2,1,99,99,4,1,1,1,1499.878652
6,1,3,2,1,3,0,0,3,1,1,1,2692.082088
6,1,3,3,1,4,0,1,9,2,2,1,621.1956302
6,1,3,4,1,4,1,1,8,2,2,1,640.6371882
6,1,3,5,2,2,0,0,4,1,2,0,1.471557654
6,1,3,6,2,2,1,1,7,2,2,1,1974.739536
6,1,3,7,2,1,0,1,6,2,2,1,1508.715696
6,1,3,8,1,3,0,0,5,1,1,1,1124.732658
6,1,3,9,2,4,0,0,1,1,1,1,643.6585309
6,1,3,10,1,3,0,0,9,2,2,1,1807.034496
6,1,3,11,2,3,1,0,2,1,2,0,2115.114632
6,1,3,12,2,1,0,1,1,1,1,1,674.120103
6,1,3,13,1,1,1,0,10,2,2,1,731.5217676
6,1,3,14,1,1,1,1,5,1,1,1,2458.385845
6,1,3,15,2,2,0,0,8,2,2,1,1268.696562
6,1,3,16,2,4,0,1,4,1,2,0,1926.466661
6,1,3,17,2,4,1,1,3,1,1,1,2405.99934
6,1,3,18,1,4,1,0,7,2,2,1,882.3244078
6,1,3,19,2,2,0,0,4,1,1,1,1779.614786
6,1,3,20,1,2,1,0,5,1,1,1,2016.986076
6,1,3,21,1,2,1,1,6,2,2,1,1292.978552
6,1,3,22,2,3,0,0,3,1,1,1,1293.579358
6,1,3,23,1,1,0,0,9,2,2,1,926.519881
6,1,3,24,1,1,1,1,2,1,1,1,1062.50531
6,1,3,25,2,1,1,0,6,2,2,1,936.7733384
6,1,3,26,1,3,0,0,8,2,2,1,759.6195498
6,1,3,27,1,3,1,1,9,2,2,1,1181.472925
6,1,3,28,1,3,1,1,7,2,2,1,898.7048687
6,1,3,29,2,4,0,0,1,1,1,1,514.7849908
6,1,3,30,2,2,0,1,2,1,1,1,1026.67752
6,1,3,31,2,2,1,1,1,1,1,1,1389.199855
6,1,3,32,1,4,0,0,3,1,1,1,882.2727902
6,1,3,33,1,4,1,1,10,2,2,1,611.1428682
6,1,3,34,2,4,1,0,7,2,2,1,1.461299136
6,1,3,35,1,3,0,0,10,2,2,1,811.2388561
6,1,3,36,1,3,1,1,4,1,1,1,2015.658788
6,1,3,37,2,3,1,0,5,1,1,1,1554.942495
6,1,3,38,2,1,0,1,1,1,2,0,1401.573765
6,1,3,39,2,2,0,1,6,2,2,1,3324.774144
6,1,3,40,1,2,1,0,9,2,2,1,716.5724691
6,1,3,41,1,1,0,1,8,2,2,1,636.2837479
6,1,3,42,2,1,1,0,3,1,1,1,743.2814073
6,1,3,43,2,2,0,1,10,2,2,1,1037.856873
6,1,3,44,1,2,1,0,4,1,1,1,1097.107123
6,1,3,45,2,4,0,0,8,2,2,1,1298.115861
6,1,3,46,2,3,0,1,7,2,2,1,2498.480512
6,1,3,47,1,1,0,0,5,1,1,1,794.5284965
6,1,3,48,1,4,0,1,6,2,2,1,1263.359839
6,1,4,1,2,1,99,99,4,1,2,0,3852.312959
6,1,4,2,1,3,0,0,1,1,1,1,1566.071834
6,1,4,3,1,4,0,1,9,2,2,1,867.0772705
6,1,4,4,1,4,1,1,8,2,2,1,668.2553515
6,1,4,5,2,2,0,0,4,1,1,1,1581.265431
6,1,4,6,2,2,1,1,10,2,2,1,2737.720585
6,1,4,7,2,1,0,1,7,2,2,1,1057.097414
6,1,4,8,1,3,0,0,2,1,1,1,1266.567131
6,1,4,9,2,4,0,0,3,1,1,1,1139.266779
6,1,4,10,1,3,0,0,9,2,2,1,1009.647522
6,1,4,11,2,3,1,0,1,1,2,0,1613.581679
6,1,4,12,2,1,0,1,4,1,1,1,3001.139095
6,1,4,13,1,1,1,0,10,2,2,1,892.3912756
6,1,4,14,1,1,1,1,5,1,1,1,2237.103909
6,1,4,15,2,2,0,0,8,2,2,1,3759.45444
6,1,4,16,2,4,0,1,2,1,1,1,1189.146826
6,1,4,17,2,4,1,1,3,1,1,1,1065.440411
6,1,4,18,1,4,1,0,6,2,2,1,1362.361712
6,1,4,19,2,2,0,0,1,1,1,1,1368.073859
6,1,4,20,1,2,1,0,4,1,1,1,1549.010417
6,1,4,21,1,2,1,1,7,2,2,1,1602.701447
6,1,4,22,2,3,0,0,5,1,1,1,2454.874303
6,1,4,23,1,1,0,0,9,2,2,1,888.1609468
6,1,4,24,1,1,1,1,2,1,2,0,1.482137479
6,1,4,25,2,1,1,0,6,2,2,1,3596.187478
6,1,4,26,1,3,0,0,9,2,1,0,1160.594433
6,1,4,27,1,3,1,1,10,2,2,1,1621.601511
6,1,4,28,1,3,1,1,8,2,2,1,704.9288861
6,1,4,29,2,4,0,0,3,1,1,1,888.839338
6,1,4,30,2,2,0,1,5,1,1,1,2841.874835
6,1,4,31,2,2,1,1,1,1,1,1,1588.324421
6,1,4,32,1,4,0,0,2,1,1,1,1144.936606
6,1,4,33,1,4,1,1,7,2,2,1,1911.427914
6,1,4,34,2,4,1,0,10,2,2,1,2222.698671
6,1,4,35,1,3,0,0,9,2,2,1,1634.122577
6,1,4,36,1,3,1,1,4,1,1,1,900.2062427
6,1,4,37,2,3,1,0,3,1,1,1,1611.574718
6,1,4,38,2,1,0,1,5,1,1,1,1231.72038
6,1,4,39,2,2,0,1,6,2,2,1,1129.530451
6,1,4,40,1,2,1,0,8,2,1,0,2080.652603
6,1,4,41,1,1,0,1,7,2,2,1,1361.118102
6,1,4,42,2,1,1,0,3,1,1,1,614.299505
6,1,4,43,2,2,0,1,6,2,2,1,1410.257241
6,1,4,44,1,2,1,0,4,1,1,1,989.5275729
6,1,4,45,2,4,0,0,8,2,2,1,1617.88767
6,1,4,46,2,3,0,1,10,2,2,1,1524.871095
6,1,4,47,1,1,0,0,1,1,1,1,908.1978612
6,1,4,48,1,4,0,1,9,2,2,1,907.377122
6,1,5,1,2,1,99,99,4,1,99,99,99000
6,1,5,2,1,3,0,0,1,1,1,1,1226.165969
6,1,5,3,1,4,0,1,9,2,2,1,3733.383176
6,1,5,4,1,4,1,1,10,2,2,1,3211.930329
6,1,5,5,2,2,0,0,5,1,1,1,1439.662112
6,1,5,6,2,2,1,1,8,2,2,1,905.8937021
6,1,5,7,2,1,0,1,9,2,2,1,1009.478565
6,1,5,8,1,3,0,0,2,1,1,1,1125.356548
6,1,5,9,2,4,0,0,3,1,1,1,1700.11346
6,1,5,10,1,3,0,0,7,2,2,1,803.7569933
6,1,5,11,2,3,1,0,1,1,1,1,1047.394108
6,1,5,12,2,1,0,1,5,1,1,1,1216.929778
6,1,5,13,1,1,1,0,6,2,2,1,1604.377869
6,1,5,14,1,1,1,1,3,1,1,1,744.0194311
6,1,5,15,2,2,0,0,10,2,2,1,1262.203432
6,1,5,16,2,4,0,1,4,1,1,1,791.5222226
6,1,5,17,2,4,1,1,2,1,1,1,1060.166527
6,1,5,18,1,4,1,0,8,2,2,1,669.2957012
6,1,5,19,2,2,0,0,5,1,1,1,1310.293885
6,1,5,20,1,2,1,0,1,1,1,1,1309.982902
6,1,5,21,1,2,1,1,9,2,2,1,1053.920259
6,1,5,22,2,3,0,0,3,1,1,1,951.407806
6,1,5,23,1,1,0,0,7,2,2,1,1276.787887
6,1,5,24,1,1,1,1,4,1,1,1,1005.760236
6,1,5,25,2,1,1,0,8,2,2,1,753.6297627
6,1,5,26,1,3,0,0,6,2,2,1,3103.752857
6,1,5,27,1,3,1,1,9,2,2,1,1039.459236
6,1,5,28,1,3,1,1,7,2,2,1,1393.716799
6,1,5,29,2,4,0,0,2,1,1,1,870.4336416
6,1,5,30,2,2,0,1,1,1,1,1,983.0196947
6,1,5,31,2,2,1,1,3,1,1,1,1187.681359
6,1,5,32,1,4,0,0,4,1,1,1,871.8112642
6,1,5,33,1,4,1,1,10,2,1,0,744.3621531
6,1,5,34,2,4,1,0,6,2,2,1,3399.058972
6,1,5,35,1,3,0,0,10,2,2,1,682.2579149
6,1,5,36,1,3,1,1,5,1,1,1,802.8993858
6,1,5,37,2,3,1,0,2,1,1,1,1710.45348
6,1,5,38,2,1,0,1,5,1,1,1,1030.232663
6,1,5,39,2,2,0,1,8,2,2,1,1360.78628
6,1,5,40,1,2,1,0,9,2,2,1,1814.468269
6,1,5,41,1,1,0,1,7,2,2,1,1401.521508
6,1,5,42,2,1,1,0,1,1,1,1,2501.240565
6,1,5,43,2,2,0,1,6,2,2,1,2677.119004
6,1,5,44,1,2,1,0,2,1,1,1,1558.48225
6,1,5,45,2,4,0,0,8,2,2,1,1428.175944
