SID,CB,block,trial,eye,loc,locrep,eyerep,tarimg,urban,resp,corr,RT
1,2,1,1,1,1,99,99,64,2,2,1,2267.477466
1,2,1,2,1,2,0,1,77,2,2,1,1354.48849
1,2,1,3,1,2,1,1,95,2,2,1,1120.970971
1,2,1,4,2,1,0,0,0,1,1,1,3624.5625
1,2,1,5,2,1,1,1,42,1,99,99,99000
1,2,1,6,1,1,1,0,71,2,99,99,99000
1,2,1,7,2,2,0,0,46,1,2,0,2164.781695
1,2,1,8,2,2,1,1,109,2,2,1,1258.389078
1,2,1,9,1,1,0,0,119,2,2,1,1884.542399
1,2,1,10,1,2,0,1,56,1,1,1,2510.001619
1,2,1,11,1,2,1,1,73,2,2,1,2350.059712
1,2,1,12,2,2,1,0,79,2,99,99,99000
1,2,1,13,1,1,0,0,15,1,1,1,4721.286763
1,2,1,14,2,1,0,0,121,2,99,99,99000
1,2,1,15,1,2,0,0,76,2,2,1,1277.873584
1,2,1,16,1,2,1,1,53,1,1,1,2239.178044
1,2,1,17,1,1,0,1,48,1,1,1,3866.771824
1,2,1,18,2,1,1,0,98,2,2,1,1020.191431
1,2,1,19,2,2,0,1,7,1,1,1,3864.115006
1,2,1,20,1,2,1,0,41,1,1,1,1026.015142
1,2,1,21,2,1,0,0,49,1,1,1,2237.953991
1,2,1,22,2,1,1,1,19,1,1,1,2048.564591
1,2,1,23,1,1,1,0,36,1,1,1,2371.380619
1,2,1,24,1,2,0,1,86,2,2,1,760.973921
1,2,1,25,1,2,1,1,45,1,1,1,1687.057831
1,2,1,26,2,2,1,0,117,2,99,99,99000
1,2,1,27,2,1,0,1,37,1,1,1,3372.794147
1,2,1,28,2,1,1,1,112,2,2,1,1154.331395
1,2,1,29,1,1,1,0,105,2,2,1,2648.780996
1,2,1,30,2,2,0,0,124,2,99,99,99000
1,2,1,31,2,1,0,1,100,2,2,1,2615.743738
1,2,1,32,2,2,0,1,64,1,99,99,99000
1,2,1,33,1,1,0,0,35,1,99,99,99000
1,2,1,34,1,1,1,1,120,2,2,1,4460.945227
1,2,1,35,2,2,0,0,111,2,99,99,99000
1,2,1,36,2,1,0,1,75,2,2,1,1027.580635
1,2,1,37,1,1,1,0,21,1,1,1,911.2705565
1,2,1,38,2,2,0,0,20,1,1,1,4359.737043
1,2,1,39,2,2,1,1,58,1,1,1,4630.581778
1,2,1,40,2,1,0,1,90,2,2,1,1450.804948
1,2,1,41,1,2,0,0,66,2,2,1,2661.066093
1,2,1,42,1,2,1,1,54,1,1,1,3103.277661
1,2,1,43,2,2,1,0,88,2,2,1,4199.992306
1,2,1,44,2,1,0,1,38,1,1,1,836.7809127
1,2,1,45,1,1,1,0,3,1,99,99,99000
1,2,1,46,1,1,1,1,82,2,99,99,99000
1,2,1,47,1,2,0,1,32,1,1,1,1104.207082
1,2,1,48,2,2,1,0,9,1,1,1,1312.563219
1,2,2,1,1,1,99,99,64,2,2,1,1141.167852
1,2,2,2,1,2,0,1,110,2,2,1,972.2792623
1,2,2,3,1,2,1,1,92,2,2,1,825.521417
1,2,2,4,2,1,0,0,0,1,1,1,789.0893174
1,2,2,5,2,1,1,1,22,1,1,1,858.0098073
1,2,2,6,1,1,1,0,71,2,2,1,660.5169047
1,2,2,7,2,2,0,0,52,1,99,99,99000
1,2,2,8,2,2,1,1,120,2,2,1,2027.425465
1,2,2,9,1,1,0,0,123,2,2,1,1014.732563
1,2,2,10,1,2,0,1,12,1,1,1,746.627361
1,2,2,11,1,2,1,1,78,2,2,1,681.4793795
1,2,2,12,2,2,1,0,86,2,2,1,3658.532707
1,2,2,13,1,1,0,0,41,1,99,99,99000
1,2,2,14,2,1,0,0,84,2,2,1,1057.476007
1,2,2,15,1,2,0,0,99,2,2,1,563.8288697
1,2,2,16,1,2,1,1,35,1,1,1,721.6150579
1,2,2,17,1,1,0,1,63,1,1,1,769.2364412
1,2,2,18,2,1,1,0,91,2,2,1,4167.199665
1,2,2,19,2,2,0,1,59,1,99,99,99000
1,2,2,20,1,2,1,0,36,1,1,1,801.2929829
1,2,2,21,2,1,0,0,19,1,1,1,1253.920866
1,2,2,22,2,1,1,1,46,1,2,0,2280.431657
1,2,2,23,1,1,1,0,44,1,1,1,4569.810317
1,2,2,24,1,2,0,1,113,2,2,1,951.7531246
1,2,2,25,1,2,1,1,48,1,1,1,910.056442
1,2,2,26,2,2,1,0,83,2,2,1,3526.166305
1,2,2,27,2,1,0,1,9,1,1,1,838.2495842
1,2,2,28,2,1,1,1,70,2,2,1,2920.946926
1,2,2,29,1,1,1,0,124,2,2,1,3505.325338
1,2,2,30,2,2,0,0,112,2,99,99,99000
1,2,2,31,2,1,0,1,104,2,2,1,1821.18369
1,2,2,32,2,2,0,1,51,1,1,1,1280.975716
1,2,2,33,1,1,0,0,27,1,1,1,3385.988147
1,2,2,34,1,1,1,1,105,2,2,1,2703.355567
1,2,2,35,2,2,0,0,101,2,2,1,4040.220637
1,2,2,36,2,1,0,1,98,2,2,1,4123.334119
1,2,2,37,1,1,1,0,37,1,1,1,2179.096195
1,2,2,38,2,2,0,0,1,1,1,1,4809.400332
1,2,2,39,2,2,1,1,13,1,99,99,99000
1,2,2,40,2,1,0,1,80,2,2,1,1425.908061
1,2,2,41,1,2,0,0,109,2,2,1,1149.871519
1,2,2,42,1,2,1,1,39,1,1,1,659.6711599
1,2,2,43,2,2,1,0,67,2,2,1,1454.082449
1,2,2,44,2,1,0,1,32,1,1,1,1472.785651
1,2,2,45,1,1,1,0,11,1,1,1,1218.515651
1,2,2,46,1,1,1,1,127,2,2,1,997.9122481
1,2,2,47,1,2,0,1,29,1,1,1,954.4872073
1,2,2,48,2,2,1,0,3,1,99,99,99000
1,2,3,1,1,1,99,99,64,2,2,1,1440.945515
1,2,3,2,1,2,0,1,106,2,2,1,595.5904583
1,2,3,3,1,2,1,1,97,2,2,1,632.3928512
1,2,3,4,2,1,0,0,0,1,1,1,3291.997968
1,2,3,5,2,1,1,1,25,1,1,1,1044.52951
1,2,3,6,1,1,1,0,67,2,2,1,1183.525614
1,2,3,7,2,2,0,0,6,1,99,99,99000
1,2,3,8,2,2,1,1,70,2,2,1,2977.239917
1,2,3,9,1,1,0,0,72,2,2,1,783.3185056
1,2,3,10,1,2,0,1,43,1,1,1,675.7197888
1,2,3,11,1,2,1,1,77,2,2,1,709.3504788
1,2,3,12,2,2,1,0,90,2,99,99,99000
1,2,3,13,1,1,0,0,46,1,2,0,1866.360172
1,2,3,14,2,1,0,0,105,2,2,1,1059.560553
1,2,3,15,1,2,0,0,75,2,2,1,621.7854572
1,2,3,16,1,2,1,1,54,1,1,1,593.6883343
1,2,3,17,1,1,0,1,15,1,1,1,1526.339429
1,2,3,18,2,1,1,0,92,2,2,1,1021.916904
1,2,3,19,2,2,0,1,1,1,1,1,937.8323229
1,2,3,20,1,2,1,0,33,1,1,1,656.78351
1,2,3,21,2,1,0,0,5,1,1,1,2043.282695
1,2,3,22,2,1,1,1,22,1,1,1,1869.969815
1,2,3,23,1,1,1,0,3,1,1,1,735.7307854
1,2,3,24,1,2,0,1,122,2,2,1,758.3251181
1,2,3,25,1,2,1,1,35,1,1,1,725.0919724
1,2,3,26,2,2,1,0,119,2,2,1,724.1090103
1,2,3,27,2,1,0,1,11,1,1,1,1163.87183
1,2,3,28,2,1,1,1,112,2,2,1,962.0944201
1,2,3,29,1,1,1,0,121,2,2,1,792.2773706
1,2,3,30,2,2,0,0,81,2,2,1,2853.438042
1,2,3,31,2,1,0,1,103,2,2,1,751.572947
1,2,3,32,2,2,0,1,64,1,1,1,893.9385633
1,2,3,33,1,1,0,0,38,1,1,1,766.637011
1,2,3,34,1,1,1,1,78,2,2,1,700.5009386
1,2,3,35,2,2,0,0,82,2,1,0,3477.267007
1,2,3,36,2,1,0,1,124,2,2,1,877.7556033
1,2,3,37,1,1,1,0,20,1,1,1,1135.266876
1,2,3,38,2,2,0,0,48,1,1,1,3838.789797
1,2,3,39,2,2,1,1,32,1,1,1,1769.378788
1,2,3,40,2,1,0,1,83,2,2,1,879.3294318
1,2,3,41,1,2,0,0,87,2,2,1,648.9518764
1,2,3,42,1,2,1,1,40,1,1,1,794.7857506
1,2,3,43,2,2,1,0,86,2,2,1,728.3585723
1,2,3,44,2,1,0,1,49,1,1,1,847.4101075
1,2,3,45,1,1,1,0,2,1,1,1,898.858822
1,2,3,46,1,1,1,1,113,2,2,1,1195.001835
1,2,3,47,1,2,0,1,47,1,1,1,695.9500122
1,2,3,48,2,2,1,0,14,1,1,1,832.4008659
1,2,4,1,1,1,99,99,64,2,2,1,1787.818777
1,2,4,2,1,2,0,1,124,2,2,1,592.7714165
1,2,4,3,1,2,1,1,110,2,2,1,813.749922
1,2,4,4,2,1,0,0,0,1,99,99,99000
1,2,4,5,2,1,1,1,18,1,1,1,1422.132668
1,2,4,6,1,1,1,0,103,2,2,1,688.8836524
1,2,4,7,2,2,0,0,37,1,1,1,945.5828439
1,2,4,8,2,2,1,1,93,2,99,99,99000
1,2,4,9,1,1,0,0,118,2,2,1,909.1888964
1,2,4,10,1,2,0,1,64,1,1,1,701.2896161
1,2,4,11,1,2,1,1,70,2,2,1,805.6935472
1,2,4,12,2,2,1,0,74,2,2,1,1882.145909
1,2,4,13,1,1,0,0,27,1,1,1,3179.319974
1,2,4,14,2,1,0,0,95,2,2,1,680.686214
1,2,4,15,1,2,0,0,107,2,2,1,738.3375894
1,2,4,16,1,2,1,1,51,1,1,1,624.7949358
1,2,4,17,1,1,0,1,35,1,99,99,99000
1,2,4,18,2,1,1,0,75,2,2,1,744.4710005
1,2,4,19,2,2,0,1,58,1,1,1,935.6602528
1,2,4,20,1,2,1,0,63,1,1,1,622.6921161
1,2,4,21,2,1,0,0,6,1,1,1,2202.394566
1,2,4,22,2,1,1,1,34,1,1,1,1494.682998
1,2,4,23,1,1,1,0,36,1,1,1,1167.448131
1,2,4,24,1,2,0,1,96,2,2,1,716.7364773
1,2,4,25,1,2,1,1,25,1,1,1,820.5424887
1,2,4,26,2,2,1,0,72,2,2,1,1072.619901
1,2,4,27,2,1,0,1,16,1,1,1,2194.17148
1,2,4,28,2,1,1,1,106,2,2,1,726.6815105
1,2,4,29,1,1,1,0,65,2,2,1,3437.35575
1,2,4,30,2,2,0,0,104,2,2,1,3872.608039
1,2,4,31,2,1,0,1,81,2,2,1,1793.96918
1,2,4,32,2,2,0,1,62,1,1,1,1294.743271
1,2,4,33,1,1,0,0,2,1,1,1,775.9052562
1,2,4,34,1,1,1,1,114,2,2,1,853.2408723
1,2,4,35,2,2,0,0,101,2,2,1,2254.931399
1,2,4,36,2,1,0,1,66,2,2,1,1065.525969
1,2,4,37,1,1,1,0,60,1,1,1,1426.797087
1,2,4,38,2,2,0,0,32,1,1,1,1198.968627
1,2,4,39,2,2,1,1,42,1,1,1,3163.034421
1,2,4,40,2,1,0,1,91,2,2,1,1209.371799
1,2,4,41,1,2,0,0,69,2,2,1,1093.904259
1,2,4,42,1,2,1,1,26,1,1,1,766.8053266
1,2,4,43,2,2,1,0,94,2,2,1,1356.195688
1,2,4,44,2,1,0,1,55,1,1,1,898.4959018
1,2,4,45,1,1,1,0,20,1,1,1,818.9420495
1,2,4,46,1,1,1,1,119,2,2,1,662.6428077
1,2,4,47,1,2,0,1,11,1,1,1,760.4962257
1,2,4,48,2,2,1,0,24,1,1,1,919.0092157
1,2,5,1,1,1,99,99,64,2,2,1,1421.12534
1,2,5,2,1,2,0,1,126,2,2,1,769.2906228
1,2,5,3,1,2,1,1,97,2,2,1,574.4074094
1,2,5,4,2,1,0,0,0,1,1,1,676.0439156
1,2,5,5,2,1,1,1,11,1,1,1,669.4305651
1,2,5,6,1,1,1,0,118,2,2,1,679.6763213
1,2,5,7,2,2,0,0,47,1,1,1,1160.882229
1,2,5,8,2,2,1,1,83,2,2,1,774.9835295
1,2,5,9,1,1,0,0,81,2,2,1,796.5990677
1,2,5,10,1,2,0,1,38,1,1,1,761.5513224
1,2,5,11,1,2,1,1,108,2,2,1,607.8047031
1,2,5,12,2,2,1,0,122,2,2,1,1276.373814
1,2,5,13,1,1,0,0,33,1,1,1,661.8954875
1,2,5,14,2,1,0,0,101,2,2,1,631.4124544
1,2,5,15,1,2,0,0,93,2,1,0,634.2802276
1,2,5,16,1,2,1,1,39,1,1,1,605.0100266
1,2,5,17,1,1,0,1,16,1,1,1,968.9357178
1,2,5,18,2,1,1,0,70,2,2,1,710.7030936
1,2,5,19,2,2,0,1,64,1,2,0,1166.39079
1,2,5,20,1,2,1,0,49,1,1,1,666.5919665
1,2,5,21,2,1,0,0,62,1,1,1,724.5742022
1,2,5,22,2,1,1,1,35,1,1,1,1100.174888
1,2,5,23,1,1,1,0,18,1,99,99,99000
1,2,5,24,1,2,0,1,111,2,2,1,608.13396
1,2,5,25,1,2,1,1,6,1,1,1,556.6547886
1,2,5,26,2,2,1,0,121,2,2,1,1193.902175
1,2,5,27,2,1,0,1,9,1,1,1,606.7117751
1,2,5,28,2,1,1,1,114,2,2,1,675.2103544
1,2,5,29,1,1,1,0,119,2,2,1,4533.437529
1,2,5,30,2,2,0,0,78,2,2,1,2764.075732
1,2,5,31,2,1,0,1,68,2,2,1,2394.875519
1,2,5,32,2,2,0,1,7,1,99,99,99000
1,2,5,33,1,1,0,0,26,1,1,1,3763.286734
1,2,5,34,1,1,1,1,128,2,99,99,99000
1,2,5,35,2,2,0,0,103,2,2,1,869.1753671
1,2,5,36,2,1,0,1,106,2,2,1,615.1224133
1,2,5,37,1,1,1,0,32,1,1,1,698.4667275
1,2,5,38,2,2,0,0,10,1,1,1,866.4893745
1,2,5,39,2,2,1,1,27,1,1,1,1083.478004
1,2,5,40,2,1,0,1,82,2,2,1,876.6270885
1,2,5,41,1,2,0,0,84,2,2,1,741.9485147
1,2,5,42,1,2,1,1,17,1,1,1,652.7814511
1,2,5,43,2,2,1,0,123,2,2,1,2175.185828
1,2,5,44,2,1,0,1,56,1,1,1,653.1546307
1,2,5,45,1,1,1,0,42,1,1,1,1446.878552
1,2,5,46,1,1,1,1,104,2,99,99,99000
1,2,5,47,1,2,0,1,15,1,1,1,724.8896733
1,2,5,48,2,2,1,0,1,1,1,1,716.1609991
1,2,6,1,1,1,99,99,64,2,2,1,1613.934909
1,2,6,2,1,2,0,1,94,2,2,1,586.1789049
1,2,6,3,1,2,1,1,67,2,2,1,462.6533873
1,2,6,4,2,1,0,0,0,1,1,1,657.1512385
1,2,6,5,2,1,1,1,26,1,1,1,619.1481962
1,2,6,6,1,1,1,0,66,2,2,1,1518.788321
1,2,6,7,2,2,0,0,60,1,1,1,1518.751453
1,2,6,8,2,2,1,1,108,2,2,1,902.0529664
1,2,6,9,1,1,0,0,72,2,2,1,798.6287908
1,2,6,10,1,2,0,1,55,1,1,1,2074.554085
1,2,6,11,1,2,1,1,89,2,2,1,1244.303487
1,2,6,12,2,2,1,0,100,2,2,1,999.1991394
1,2,6,13,1,1,0,0,48,1,1,1,2771.681021
1,2,6,14,2,1,0,0,97,2,2,1,681.3280564
1,2,6,15,1,2,0,0,106,2,2,1,698.6449813
1,2,6,16,1,2,1,1,44,1,1,1,962.7571017
1,2,6,17,1,1,0,1,59,1,1,1,3008.962713
1,2,6,18,2,1,1,0,99,2,2,1,717.6315947
1,2,6,19,2,2,0,1,39,1,1,1,1117.197822
1,2,6,20,1,2,1,0,30,1,1,1,804.8426732
1,2,6,21,2,1,0,0,43,1,1,1,832.6913305
1,2,6,22,2,1,1,1,12,1,1,1,739.9636758
1,2,6,23,1,1,1,0,15,1,1,1,754.763565
1,2,6,24,1,2,0,1,107,2,2,1,577.0177408
1,2,6,25,1,2,1,1,47,1,1,1,814.2619212
1,2,6,26,2,2,1,0,126,2,2,1,1138.542132
1,2,6,27,2,1,0,1,20,1,1,1,777.5162742
1,2,6,28,2,1,1,1,86,2,2,1,791.0334403
1,2,6,29,1,1,1,0,123,2,2,1,1212.365889
1,2,6,30,2,2,0,0,68,2,2,1,1928.398648
1,2,6,31,2,1,0,1,81,2,2,1,872.1482973
1,2,6,32,2,2,0,1,6,1,99,99,99000
1,2,6,33,1,1,0,0,18,1,99,99,99000
1,2,6,34,1,1,1,1,87,2,2,1,1297.321221
1,2,6,35,2,2,0,0,102,2,2,1,3082.772042
1,2,6,36,2,1,0,1,117,2,2,1,795.3644348
1,2,6,37,1,1,1,0,52,1,99,99,99000
1,2,6,38,2,2,0,0,64,1,2,0,828.1538691
1,2,6,39,2,2,1,1,54,1,1,1,758.9034815
1,2,6,40,2,1,0,1,112,2,2,1,725.3625593
1,2,6,41,1,2,0,0,116,2,2,1,892.8882759
1,2,6,42,1,2,1,1,31,1,1,1,573.8957315
1,2,6,43,2,2,1,0,73,2,2,1,731.1272803
1,2,6,44,2,1,0,1,40,1,1,1,674.3117105
1,2,6,45,1,1,1,0,53,1,1,1,819.536123
1,2,6,46,1,1,1,1,128,2,2,1,935.1633219
1,2,6,47,1,2,0,1,13,1,1,1,630.0575961
1,2,6,48,2,2,1,0,3,1,1,1,1169.72696
1,2,7,1,1,1,99,99,64,2,99,99,99000
1,2,7,2,1,2,0,1,123,2,2,1,922.3226234
1,2,7,3,1,2,1,1,65,2,2,1,609.310885
1,2,7,4,2,1,0,0,0,1,1,1,653.1020524
1,2,7,5,2,1,1,1,41,1,1,1,735.3370874
1,2,7,6,1,1,1,0,115,2,2,1,2126.459655
1,2,7,7,2,2,0,0,3,1,1,1,758.285684
1,2,7,8,2,2,1,1,81,2,2,1,764.6435159
1,2,7,9,1,1,0,0,74,2,2,1,3251.073291
1,2,7,10,1,2,0,1,46,1,1,1,1173.102565
1,2,7,11,1,2,1,1,86,2,2,1,714.2886911
1,2,7,12,2,2,1,0,124,2,2,1,3217.690425
1,2,7,13,1,1,0,0,28,1,1,1,3422.073998
1,2,7,14,2,1,0,0,110,2,2,1,1257.762624
1,2,7,15,1,2,0,0,101,2,2,1,859.6548093
1,2,7,16,1,2,1,1,59,1,1,1,990.1854512
1,2,7,17,1,1,0,1,37,1,99,99,99000
1,2,7,18,2,1,1,0,122,2,2,1,863.2246978
1,2,7,19,2,2,0,1,14,1,1,1,1209.716445
1,2,7,20,1,2,1,0,34,1,1,1,645.9254059
1,2,7,21,2,1,0,0,10,1,1,1,840.7095531
1,2,7,22,2,1,1,1,30,1,1,1,660.0959557
1,2,7,23,1,1,1,0,20,1,99,99,99000
1,2,7,24,1,2,0,1,108,2,2,1,810.7093452
1,2,7,25,1,2,1,1,50,1,1,1,718.7360637
1,2,7,26,2,2,1,0,119,2,2,1,1110.211933
1,2,7,27,2,1,0,1,5,1,1,1,3054.859906
1,2,7,28,2,1,1,1,85,2,1,0,729.0263837
1,2,7,29,1,1,1,0,103,2,2,1,2215.186534
1,2,7,30,2,2,0,0,114,2,2,1,1483.205494
1,2,7,31,2,1,0,1,96,2,1,0,851.4390965
1,2,7,32,2,2,0,1,16,1,1,1,3284.149022
1,2,7,33,1,1,0,0,56,1,2,0,3957.740983
1,2,7,34,1,1,1,1,93,2,1,0,2427.033369
1,2,7,35,2,2,0,0,71,2,2,1,989.9696871
1,2,7,36,2,1,0,1,127,2,2,1,818.4637139
1,2,7,37,1,1,1,0,6,1,99,99,99000
1,2,7,38,2,2,0,0,38,1,1,1,2530.139189
1,2,7,39,2,2,1,1,44,1,1,1,913.7507235
1,2,7,40,2,1,0,1,94,2,2,1,938.3718935
1,2,7,41,1,2,0,0,69,2,2,1,2817.155983
1,2,7,42,1,2,1,1,52,1,1,1,3877.098051
1,2,7,43,2,2,1,0,72,2,2,1,862.4106925
1,2,7,44,2,1,0,1,53,1,1,1,831.7167046
1,2,7,45,1,1,1,0,48,1,1,1,1481.982723
1,2,7,46,1,1,1,1,91,2,2,1,1746.65333
1,2,7,47,1,2,0,1,7,1,1,1,1984.988835
1,2,7,48,2,2,1,0,63,1,1,1,2325.116017
1,2,8,1,1,1,99,99,64,2,2,1,1571.355292
1,2,8,2,1,2,0,1,121,2,2,1,1176.455086
1,2,8,3,1,2,1,1,107,2,2,1,597.0020629
1,2,8,4,2,1,0,0,0,1,1,1,593.5251485
1,2,8,5,2,1,1,1,43,1,1,1,821.8742637
1,2,8,6,1,1,1,0,79,2,2,1,656.3708964
1,2,8,7,2,2,0,0,42,1,1,1,2073.96482
1,2,8,8,2,2,1,1,72,2,2,1,819.0145055
1,2,8,9,1,1,0,0,66,2,2,1,918.2083551
1,2,8,10,1,2,0,1,50,1,1,1,652.9984982
1,2,8,11,1,2,1,1,123,2,2,1,966.6238665
1,2,8,12,2,2,1,0,81,2,2,1,1156.066486
1,2,8,13,1,1,0,0,22,1,1,1,738.3212387
1,2,8,14,2,1,0,0,82,2,2,1,689.1664225
1,2,8,15,1,2,0,0,120,2,2,1,569.6464898
1,2,8,16,1,2,1,1,27,1,1,1,582.6141462
1,2,8,17,1,1,0,1,30,1,1,1,890.7790435
1,2,8,18,2,1,1,0,69,2,2,1,675.4751704
1,2,8,19,2,2,0,1,8,1,1,1,1083.719737
1,2,8,20,1,2,1,0,44,1,1,1,627.9650349
1,2,8,21,2,1,0,0,56,1,1,1,734.7398088
1,2,8,22,2,1,1,1,12,1,1,1,493.6862504
1,2,8,23,1,1,1,0,41,1,1,1,845.3226765
1,2,8,24,1,2,0,1,80,2,2,1,552.1227773
1,2,8,25,1,2,1,1,9,1,1,1,845.2486182
1,2,8,26,2,2,1,0,70,2,2,1,1191.275173
1,2,8,27,2,1,0,1,61,1,1,1,723.6431777
1,2,8,28,2,1,1,1,109,2,2,1,690.7893033
1,2,8,29,1,1,1,0,98,2,2,1,1043.056991
1,2,8,30,2,2,0,0,75,2,2,1,901.1132861
1,2,8,31,2,1,0,1,111,2,2,1,740.7305529
1,2,8,32,2,2,0,1,11,1,1,1,907.1392962
1,2,8,33,1,1,0,0,60,1,1,1,850.5721921
1,2,8,34,1,1,1,1,96,2,2,1,715.9792189
1,2,8,35,2,2,0,0,125,2,2,1,874.9388056
1,2,8,36,2,1,0,1,117,2,2,1,668.0699359
1,2,8,37,1,1,1,0,52,1,99,99,99000
1,2,8,38,2,2,0,0,3,1,1,1,808.7450247
1,2,8,39,2,2,1,1,57,1,1,1,1260.163282
1,2,8,40,2,1,0,1,89,2,2,1,709.7124374
1,2,8,41,1,2,0,0,74,2,2,1,1005.715028
1,2,8,42,1,2,1,1,20,1,1,1,897.0493516
1,2,8,43,2,2,1,0,128,2,2,1,737.4200304
1,2,8,44,2,1,0,1,5,1,1,1,783.4816915
1,2,8,45,1,1,1,0,14,1,1,1,2843.971345
1,2,8,46,1,1,1,1,104,2,2,1,895.4037083
1,2,8,47,1,2,0,1,19,1,1,1,672.1906164
1,2,8,48,2,2,1,0,10,1,1,1,1257.1304
1,2,9,1,1,1,99,99,64,2,2,1,769.28902
1,2,9,2,1,2,0,1,77,2,2,1,694.8859384
1,2,9,3,1,2,1,1,83,2,2,1,799.467803
1,2,9,4,2,1,0,0,0,1,1,1,691.3404153
1,2,9,5,2,1,1,1,45,1,1,1,532.3189525
1,2,9,6,1,1,1,0,100,2,2,1,3762.82571
1,2,9,7,2,2,0,0,22,1,1,1,1856.672902
1,2,9,8,2,2,1,1,105,2,2,1,1610.971917
1,2,9,9,1,1,0,0,89,2,2,1,846.8371942
1,2,9,10,1,2,0,1,32,1,1,1,728.7157215
1,2,9,11,1,2,1,1,95,2,2,1,767.8434318
1,2,9,12,2,2,1,0,74,2,2,1,668.6050184
1,2,9,13,1,1,0,0,57,1,1,1,998.1991863
1,2,9,14,2,1,0,0,66,2,2,1,633.5457317
1,2,9,15,1,2,0,0,79,2,2,1,700.2467019
1,2,9,16,1,2,1,1,9,1,1,1,675.5120396
1,2,9,17,1,1,0,1,8,1,1,1,972.7899791
1,2,9,18,2,1,1,0,85,2,1,0,697.3523195
1,2,9,19,2,2,0,1,42,1,1,1,2609.165653
1,2,9,20,1,2,1,0,18,1,1,1,652.4377675
1,2,9,21,2,1,0,0,7,1,99,99,99000
1,2,9,22,2,1,1,1,29,1,1,1,817.9776832
1,2,9,23,1,1,1,0,1,1,1,1,605.1347405
1,2,9,24,1,2,0,1,67,2,2,1,576.4329648
1,2,9,25,1,2,1,1,54,1,1,1,813.6652834
1,2,9,26,2,2,1,0,121,2,2,1,1560.886076
1,2,9,27,2,1,0,1,41,1,1,1,894.7484004
1,2,9,28,2,1,1,1,101,2,2,1,694.8400922
1,2,9,29,1,1,1,0,93,2,1,0,903.281508
1,2,9,30,2,2,0,0,110,2,2,1,814.2231284
1,2,9,31,2,1,0,1,72,2,2,1,697.83322
1,2,9,32,2,2,0,1,38,1,1,1,769.357949
1,2,9,33,1,1,0,0,14,1,1,1,3590.935016
1,2,9,34,1,1,1,1,104,2,2,1,987.0224055
1,2,9,35,2,2,0,0,98,2,99,99,99000
1,2,9,36,2,1,0,1,90,2,2,1,706.3512597
1,2,9,37,1,1,1,0,23,1,1,1,898.3663791
1,2,9,38,2,2,0,0,11,1,1,1,921.547411
1,2,9,39,2,2,1,1,44,1,2,0,1632.727238
1,2,9,40,2,1,0,1,69,2,2,1,633.6819865
1,2,9,41,1,2,0,0,119,2,2,1,644.0434796
1,2,9,42,1,2,1,1,34,1,1,1,542.2835425
1,2,9,43,2,2,1,0,94,2,2,1,868.8012259
1,2,9,44,2,1,0,1,56,1,1,1,621.7921898
1,2,9,45,1,1,1,0,64,1,2,0,3481.020921
1,2,9,46,1,1,1,1,80,2,2,1,936.9436176
1,2,9,47,1,2,0,1,26,1,1,1,655.1923682
1,2,9,48,2,2,1,0,13,1,1,1,856.7899219
1,2,10,1,1,1,99,99,64,2,2,1,869.1134909
1,2,10,2,1,2,0,1,117,2,2,1,901.3197524
1,2,10,3,1,2,1,1,72,2,2,1,1181.34104
1,2,10,4,2,1,0,0,0,1,1,1,944.5338384
1,2,10,5,2,1,1,1,39,1,1,1,574.7459638
1,2,10,6,1,1,1,0,109,2,2,1,2132.027847
1,2,10,7,2,2,0,0,22,1,1,1,1746.182047
1,2,10,8,2,2,1,1,115,2,2,1,1280.617285
1,2,10,9,1,1,0,0,127,2,2,1,1080.808683
1,2,10,10,1,2,0,1,33,1,1,1,681.3091408
1,2,10,11,1,2,1,1,99,2,2,1,690.1410483
1,2,10,12,2,2,1,0,86,2,2,1,794.4661118
1,2,10,13,1,1,0,0,41,1,1,1,1550.358832
1,2,10,14,2,1,0,0,119,2,2,1,579.4543056
1,2,10,15,1,2,0,0,118,2,2,1,823.6654592
1,2,10,16,1,2,1,1,56,1,1,1,778.5175103
1,2,10,17,1,1,0,1,19,1,1,1,2839.975378
1,2,10,18,2,1,1,0,88,2,2,1,673.3104745
1,2,10,19,2,2,0,1,54,1,1,1,850.7449958
1,2,10,20,1,2,1,0,26,1,1,1,603.7571193
1,2,10,21,2,1,0,0,7,1,1,1,991.3235842
1,2,10,22,2,1,1,1,37,1,1,1,531.568747
1,2,10,23,1,1,1,0,34,1,1,1,1073.7295
1,2,10,24,1,2,0,1,81,2,2,1,634.3209436
1,2,10,25,1,2,1,1,53,1,1,1,699.7151463
1,2,10,26,2,2,1,0,70,2,2,1,787.2705502
1,2,10,27,2,1,0,1,13,1,1,1,759.4468999
1,2,10,28,2,1,1,1,107,2,2,1,589.0309685
1,2,10,29,1,1,1,0,85,2,2,1,1401.781258
1,2,10,30,2,2,0,0,126,2,2,1,972.8973801
1,2,10,31,2,1,0,1,97,2,2,1,745.8508662
1,2,10,32,2,2,0,1,27,1,1,1,920.0918842
1,2,10,33,1,1,0,0,50,1,1,1,2471.373726
1,2,10,34,1,1,1,1,120,2,2,1,704.4552271
1,2,10,35,2,2,0,0,100,2,2,1,1583.706112
1,2,10,36,2,1,0,1,75,2,2,1,540.6459142
1,2,10,37,1,1,1,0,28,1,2,0,889.9195134
1,2,10,38,2,2,0,0,16,1,99,99,99000
1,2,10,39,2,2,1,1,10,1,99,99,99000
1,2,10,40,2,1,0,1,116,2,2,1,864.6613094
1,2,10,41,1,2,0,0,102,2,2,1,785.4771102
1,2,10,42,1,2,1,1,6,1,1,1,589.715451
1,2,10,43,2,2,1,0,68,2,2,1,1073.951035
1,2,10,44,2,1,0,1,35,1,1,1,843.2352459
1,2,10,45,1,1,1,0,29,1,1,1,2013.261647
1,2,10,46,1,1,1,1,101,2,2,1,1440.712439
1,2,10,47,1,2,0,1,20,1,1,1,729.2213091
1,2,10,48,2,2,1,0,9,1,1,1,871.4792035
2,2,1,1,1,1,99,99,0,1,1,1,963.0629551
2,2,1,2,1,1,1,1,10,1,1,1,663.2958711
2,2,1,3,2,1,1,0,64,2,2,1,849.5748034
2,2,1,4,2,2,0,1,5,1,2,0,1875.842258
2,2,1,5,2,2,1,1,102,2,2,1,829.1538227
2,2,1,6,1,2,1,0,108,2,2,1,664.8046179
2,2,1,7,1,1,0,1,74,2,2,1,674.6214107
2,2,1,8,2,2,0,0,82,2,2,1,883.9355013
2,2,1,9,2,2,1,1,61,1,1,1,797.120044
2,2,1,10,1,2,1,0,115,2,2,1,769.999471
2,2,1,11,1,1,0,1,47,1,1,1,1055.394988
2,2,1,12,2,1,1,0,37,1,1,1,721.5256104
2,2,1,13,1,2,0,0,9,1,1,1,729.104931
2,2,1,14,1,1,0,1,72,2,2,1,744.7127337
2,2,1,15,1,1,1,1,118,2,2,1,599.6928643
2,2,1,16,2,1,1,0,106,2,2,1,668.1638719
2,2,1,17,1,2,0,0,29,1,1,1,773.4007239
2,2,1,18,2,1,0,0,14,1,1,1,659.002387
2,2,1,19,2,1,1,1,57,1,2,0,1277.694689
2,2,1,20,1,2,0,0,77,2,2,1,726.7340887
2,2,1,21,1,2,1,1,21,1,1,1,622.1297826
2,2,1,22,2,2,1,0,35,1,2,0,3058.194153
2,2,1,23,1,1,0,0,20,1,1,1,732.2157193
2,2,1,24,2,1,1,0,103,2,2,1,2594.980996
2,2,1,25,2,1,1,1,121,2,2,1,752.223446
2,2,1,26,2,2,0,1,95,2,2,1,742.2867483
2,2,1,27,1,2,1,0,39,1,1,1,685.5189484
2,2,1,28,2,2,1,0,54,1,1,1,1150.067406
2,2,1,29,2,1,0,1,113,2,2,1,756.3447678
2,2,1,30,1,2,0,0,76,2,2,1,962.9055401
2,2,1,31,1,2,1,1,85,2,2,1,808.8783948
2,2,1,32,1,2,1,1,119,2,2,1,621.4626124
2,2,1,33,2,1,0,0,43,1,1,1,600.4885952
2,2,1,34,1,1,1,0,86,2,2,1,740.8745028
2,2,1,35,1,2,0,1,89,2,2,1,547.7683791
2,2,1,36,1,1,0,1,68,2,2,1,673.9885448
2,2,1,37,2,2,0,0,75,2,2,1,755.6246985
2,2,1,38,2,2,1,1,70,2,2,1,689.8727058
2,2,1,39,2,2,1,1,41,1,1,1,618.7365446
2,2,1,40,1,1,0,0,28,1,2,0,1022.296815
2,2,1,41,2,1,1,0,84,2,2,1,617.4810724
2,2,1,42,2,1,1,1,11,1,1,1,733.5087019
2,2,1,43,2,2,0,1,52,1,2,0,4228.357771
2,2,1,44,1,1,0,0,62,1,1,1,2400.294311
2,2,1,45,1,2,0,1,59,1,1,1,1412.169361
2,2,1,46,1,1,0,1,8,1,1,1,1320.597792
2,2,1,47,2,2,0,0,83,2,2,1,688.7179017
2,2,1,48,2,1,0,1,2,1,1,1,1041.39628
2,2,2,1,1,1,99,99,0,1,1,1,1733.878995
2,2,2,2,1,1,1,1,5,1,1,1,741.2422313
2,2,2,3,2,1,1,0,64,2,2,1,1131.921729
2,2,2,4,2,2,0,1,53,1,1,1,882.9073352
2,2,2,5,2,2,1,1,94,2,2,1,1947.843079
2,2,2,6,1,2,1,0,74,2,2,1,754.2938851
2,2,2,7,1,1,0,1,118,2,2,1,888.6903301
2,2,2,8,2,2,0,0,89,2,2,1,913.3454841
2,2,2,9,2,2,1,1,16,1,1,1,865.5266105
2,2,2,10,1,2,1,0,71,2,2,1,810.8468829
2,2,2,11,1,1,0,1,40,1,1,1,870.7738821
2,2,2,12,2,1,1,0,43,1,1,1,792.3376439
2,2,2,13,1,2,0,0,15,1,1,1,861.6277855
2,2,2,14,1,1,0,1,92,2,1,0,847.4998758
2,2,2,15,1,1,1,1,77,2,2,1,769.4477173
2,2,2,16,2,1,1,0,128,2,2,1,1983.566971
2,2,2,17,1,2,0,0,39,1,1,1,1172.150061
2,2,2,18,2,1,0,0,6,1,1,1,1049.877451
2,2,2,19,2,1,1,1,54,1,1,1,812.0279759
2,2,2,20,1,2,0,0,103,2,2,1,1224.292554
2,2,2,21,1,2,1,1,20,1,1,1,1036.024616
2,2,2,22,2,2,1,0,42,1,1,1,1398.972154
2,2,2,23,1,1,0,0,14,1,1,1,1483.207097
2,2,2,24,2,1,1,0,106,2,2,1,660.0978794
2,2,2,25,2,1,1,1,73,2,2,1,606.4697215
2,2,2,26,2,2,0,1,111,2,2,1,770.5255765
2,2,2,27,1,2,1,0,31,1,1,1,680.1514518
2,2,2,28,2,2,1,0,49,1,1,1,561.5372164
2,2,2,29,2,1,0,1,119,2,2,1,751.9163103
2,2,2,30,1,2,0,0,116,2,2,1,750.2142414
2,2,2,31,1,2,1,1,93,2,1,0,748.3973973
2,2,2,32,1,2,1,1,79,2,1,0,618.3406031
2,2,2,33,2,1,0,0,56,1,1,1,1261.948707
2,2,2,34,1,1,1,0,83,2,2,1,608.2343077
2,2,2,35,1,2,0,1,104,2,2,1,628.4468984
2,2,2,36,1,1,0,1,125,2,2,1,583.6096108
2,2,2,37,2,2,0,0,99,2,2,1,924.630628
2,2,2,38,2,2,1,1,102,2,2,1,668.4004753
2,2,2,39,2,2,1,1,22,1,1,1,654.047824
2,2,2,40,1,1,0,0,27,1,1,1,2040.172868
2,2,2,41,2,1,1,0,109,2,2,1,635.0201741
2,2,2,42,2,1,1,1,57,1,1,1,621.9044002
2,2,2,43,2,2,0,1,48,1,1,1,1281.500539
2,2,2,44,1,1,0,0,46,1,2,0,2826.959311
2,2,2,45,1,2,0,1,13,1,1,1,717.6274266
2,2,2,46,1,1,0,1,36,1,1,1,741.0277496
2,2,2,47,2,2,0,0,67,2,2,1,603.9045956
2,2,2,48,2,1,0,1,7,1,1,1,640.3017496
2,2,3,1,1,1,99,99,0,1,2,0,1700.357951
2,2,3,2,1,1,1,1,43,1,1,1,1284.208653
2,2,3,3,2,1,1,0,64,2,2,1,1028.709791
2,2,3,4,2,2,0,1,52,1,2,0,3568.817096
2,2,3,5,2,2,1,1,88,2,2,1,718.2407356
2,2,3,6,1,2,1,0,100,2,2,1,629.3913876
2,2,3,7,1,1,0,1,65,2,2,1,601.3920479
2,2,3,8,2,2,0,0,106,2,2,1,789.6933295
2,2,3,9,2,2,1,1,13,1,1,1,906.5394523
2,2,3,10,1,2,1,0,91,2,2,1,802.9431142
2,2,3,11,1,1,0,1,36,1,1,1,927.0518045
2,2,3,12,2,1,1,0,25,1,1,1,862.3026502
2,2,3,13,1,2,0,0,62,1,1,1,656.5420972
2,2,3,14,1,1,0,1,98,2,2,1,619.0257268
2,2,3,15,1,1,1,1,110,2,2,1,582.6253667
2,2,3,16,2,1,1,0,69,2,2,1,579.1827571
2,2,3,17,1,2,0,0,48,1,1,1,584.4232957
2,2,3,18,2,1,0,0,17,1,1,1,709.5643198
2,2,3,19,2,1,1,1,9,1,1,1,726.19035
2,2,3,20,1,2,0,0,73,2,2,1,685.6337232
2,2,3,21,1,2,1,1,50,1,2,0,582.5141184
2,2,3,22,2,2,1,0,4,1,1,1,738.7357755
2,2,3,23,1,1,0,0,26,1,1,1,881.9612428
2,2,3,24,2,1,1,0,124,2,2,1,754.7545885
2,2,3,25,2,1,1,1,121,2,2,1,672.9247919
2,2,3,26,2,2,0,1,111,2,2,1,762.8327636
2,2,3,27,1,2,1,0,11,1,1,1,609.0069553
2,2,3,28,2,2,1,0,32,1,1,1,964.9823909
2,2,3,29,2,1,0,1,72,2,2,1,674.6868133
2,2,3,30,1,2,0,0,108,2,2,1,724.5152118
2,2,3,31,1,2,1,1,87,2,2,1,539.7264315
2,2,3,32,1,2,1,1,70,2,2,1,738.5790017
2,2,3,33,2,1,0,0,37,1,1,1,801.4968848
2,2,3,34,1,1,1,0,92,2,2,1,861.7508966
2,2,3,35,1,2,0,1,127,2,2,1,776.0338169
2,2,3,36,1,1,0,1,105,2,2,1,765.8781493
2,2,3,37,2,2,0,0,76,2,2,1,2267.538701
2,2,3,38,2,2,1,1,71,2,1,0,2549.092139
2,2,3,39,2,2,1,1,51,1,1,1,1074.217774
2,2,3,40,1,1,0,0,40,1,1,1,748.2082429
2,2,3,41,2,1,1,0,94,2,2,1,698.2855881
2,2,3,42,2,1,1,1,38,1,1,1,762.4198296
2,2,3,43,2,2,0,1,60,1,1,1,640.7550788
2,2,3,44,1,1,0,0,24,1,1,1,635.4680532
2,2,3,45,1,2,0,1,10,1,1,1,734.5253266
2,2,3,46,1,1,0,1,41,1,1,1,589.3752933
2,2,3,47,2,2,0,0,79,2,2,1,730.7290938
2,2,3,48,2,1,0,1,20,1,1,1,713.8975584
2,2,4,1,1,1,99,99,0,1,1,1,669.0817517
2,2,4,2,1,1,1,1,37,1,1,1,398.7679319
2,2,4,3,2,1,1,0,64,2,1,0,931.0910525
2,2,4,4,2,2,0,1,8,1,1,1,681.7945302
2,2,4,5,2,2,1,1,71,2,1,0,802.4131614
2,2,4,6,1,2,1,0,117,2,2,1,622.4590396
2,2,4,7,1,1,0,1,113,2,2,1,769.8737956
2,2,4,8,2,2,0,0,106,2,2,1,999.7460847
2,2,4,9,2,2,1,1,3,1,1,1,804.1437636
2,2,4,10,1,2,1,0,76,2,2,1,664.0348556
2,2,4,11,1,1,0,1,22,1,1,1,722.6259117
2,2,4,12,2,1,1,0,5,1,1,1,1610.21049
2,2,4,13,1,2,0,0,62,1,1,1,678.1736659
2,2,4,14,1,1,0,1,126,2,2,1,719.8187322
2,2,4,15,1,1,1,1,97,2,2,1,567.2910367
2,2,4,16,2,1,1,0,79,2,2,1,788.6385531
2,2,4,17,1,2,0,0,51,1,1,1,706.0768255
2,2,4,18,2,1,0,0,6,1,1,1,1682.020233
2,2,4,19,2,1,1,1,54,1,1,1,723.0106327
2,2,4,20,1,2,0,0,119,2,2,1,458.5480955
2,2,4,21,1,2,1,1,47,1,1,1,701.051089
2,2,4,22,2,2,1,0,4,1,1,1,677.003474
2,2,4,23,1,1,0,0,61,1,1,1,582.5759941
2,2,4,24,2,1,1,0,82,2,2,1,731.5479079
2,2,4,25,2,1,1,1,80,2,2,1,706.6160757
2,2,4,26,2,2,0,1,94,2,2,1,650.1954864
2,2,4,27,1,2,1,0,28,1,2,0,652.7747186
2,2,4,28,2,2,1,0,21,1,1,1,710.4161554
2,2,4,29,2,1,0,1,108,2,2,1,582.7292418
2,2,4,30,1,2,0,0,110,2,2,1,859.203083
2,2,4,31,1,2,1,1,127,2,2,1,757.6967403
2,2,4,32,1,2,1,1,100,2,2,1,676.1048301
2,2,4,33,2,1,0,0,30,1,1,1,613.355583
2,2,4,34,1,1,1,0,72,2,2,1,769.4239928
2,2,4,35,1,2,0,1,83,2,2,1,639.3021164
2,2,4,36,1,1,0,1,95,2,2,1,657.2092674
2,2,4,37,2,2,0,0,89,2,2,1,739.4019836
2,2,4,38,2,2,1,1,92,2,2,1,610.3534782
2,2,4,39,2,2,1,1,38,1,1,1,838.5666586
2,2,4,40,1,1,0,0,24,1,1,1,593.4696849
2,2,4,41,2,1,1,0,86,2,2,1,654.379325
2,2,4,42,2,1,1,1,2,1,1,1,616.8616721
2,2,4,43,2,2,0,1,42,1,2,0,788.1582933
2,2,4,44,1,1,0,0,12,1,1,1,664.4913913
2,2,4,45,1,2,0,1,55,1,2,0,762.7179883
2,2,4,46,1,1,0,1,64,1,1,1,768.0165558
2,2,4,47,2,2,0,0,81,2,2,1,701.1815738
2,2,4,48,2,1,0,1,56,1,1,1,757.4578933
2,2,5,1,1,1,99,99,0,1,1,1,1084.689234
2,2,5,2,1,1,1,1,61,1,1,1,717.5084837
2,2,5,3,2,1,1,0,64,2,2,1,973.1355868
2,2,5,4,2,2,0,1,59,1,1,1,858.7750806
2,2,5,5,2,2,1,1,114,2,1,0,565.265161
2,2,5,6,1,2,1,0,90,2,2,1,689.8845681
2,2,5,7,1,1,0,1,116,2,2,1,802.5064562
2,2,5,8,2,2,0,0,69,2,2,1,510.3478674
2,2,5,9,2,2,1,1,57,1,1,1,782.4221058
2,2,5,10,1,2,1,0,76,2,2,1,603.5650796
2,2,5,11,1,1,0,1,39,1,1,1,623.4147497
2,2,5,12,2,1,1,0,32,1,1,1,867.2911967
2,2,5,13,1,2,0,0,50,1,1,1,676.5437326
2,2,5,14,1,1,0,1,89,2,2,1,798.4367511
2,2,5,15,1,1,1,1,71,2,2,1,874.3630066
2,2,5,16,2,1,1,0,99,2,2,1,723.941016
2,2,5,17,1,2,0,0,56,1,1,1,747.4144357
2,2,5,18,2,1,0,0,48,1,1,1,1082.897717
2,2,5,19,2,1,1,1,15,1,1,1,619.5726716
2,2,5,20,1,2,0,0,80,2,2,1,1399.282175
2,2,5,21,1,2,1,1,46,1,1,1,739.23463
2,2,5,22,2,2,1,0,9,1,1,1,570.1123225
2,2,5,23,1,1,0,0,64,1,1,1,711.5578149
2,2,5,24,2,1,1,0,87,2,1,0,992.0173637
2,2,5,25,2,1,1,1,95,2,2,1,820.9227207
2,2,5,26,2,2,0,1,86,2,2,1,1056.513885
2,2,5,27,1,2,1,0,60,1,1,1,626.8067053
2,2,5,28,2,2,1,0,22,1,1,1,854.22704
2,2,5,29,2,1,0,1,119,2,2,1,904.5943678
2,2,5,30,1,2,0,0,113,2,2,1,584.4168835
2,2,5,31,1,2,1,1,115,2,2,1,629.4519813
2,2,5,32,1,2,1,1,85,2,2,1,512.922612
2,2,5,33,2,1,0,0,43,1,1,1,585.4723006
2,2,5,34,1,1,1,0,118,2,2,1,661.6826085
2,2,5,35,1,2,0,1,82,2,2,1,703.6274364
2,2,5,36,1,1,0,1,128,2,2,1,784.1828451
2,2,5,37,2,2,0,0,122,2,2,1,724.6489022
2,2,5,38,2,2,1,1,108,2,2,1,604.2829044
2,2,5,39,2,2,1,1,51,1,1,1,712.4308101
2,2,5,40,1,1,0,0,23,1,1,1,568.8251108
2,2,5,41,2,1,1,0,84,2,2,1,606.2501105
2,2,5,42,2,1,1,1,62,1,1,1,722.4870916
2,2,5,43,2,2,0,1,35,1,1,1,786.598892
2,2,5,44,1,1,0,0,42,1,1,1,799.196254
2,2,5,45,1,2,0,1,37,1,1,1,723.5418684
2,2,5,46,1,1,0,1,4,1,1,1,563.0171089
2,2,5,47,2,2,0,0,112,2,2,1,1208.333374
2,2,5,48,2,1,0,1,28,1,1,1,644.6138285
2,2,6,1,1,1,99,99,0,1,1,1,657.9370308
2,2,6,2,1,1,1,1,27,1,1,1,475.8663028
2,2,6,3,2,1,1,0,64,2,1,0,437.5109207
2,2,6,4,2,2,0,1,5,1,1,1,688.0356637
2,2,6,5,2,2,1,1,66,2,2,1,577.2062535
2,2,6,6,1,2,1,0,121,2,2,1,606.6088621
2,2,6,7,1,1,0,1,92,2,2,1,1034.445657
2,2,6,8,2,2,0,0,119,2,2,1,1037.42532
2,2,6,9,2,2,1,1,14,1,1,1,583.9000749
2,2,6,10,1,2,1,0,102,2,2,1,645.3082496
2,2,6,11,1,1,0,1,54,1,1,1,608.1531961
2,2,6,12,2,1,1,0,4,1,1,1,611.9285896
2,2,6,13,1,2,0,0,61,1,1,1,560.5455982
2,2,6,14,1,1,0,1,97,2,1,0,429.7809172
2,2,6,15,1,1,1,1,98,2,2,1,736.580377
2,2,6,16,2,1,1,0,116,2,2,1,775.2201324
2,2,6,17,1,2,0,0,44,1,1,1,612.5435014
2,2,6,18,2,1,0,0,6,1,1,1,720.0710452
2,2,6,19,2,1,1,1,31,1,1,1,583.1617317
2,2,6,20,1,2,0,0,113,2,2,1,580.4609917
2,2,6,21,1,2,1,1,63,1,1,1,569.6839998
2,2,6,22,2,2,1,0,25,1,1,1,527.5708567
2,2,6,23,1,1,0,0,30,1,1,1,1222.894415
2,2,6,24,2,1,1,0,122,2,2,1,546.7572045
2,2,6,25,2,1,1,1,72,2,2,1,625.2880194
2,2,6,26,2,2,0,1,71,2,1,0,588.8841334
2,2,6,27,1,2,1,0,47,1,1,1,616.7327906
2,2,6,28,2,2,1,0,32,1,1,1,812.7256031
2,2,6,29,2,1,0,1,69,2,2,1,504.7809579
2,2,6,30,1,2,0,0,111,2,1,0,544.7835866
2,2,6,31,1,2,1,1,127,2,2,1,702.7611732
2,2,6,32,1,2,1,1,106,2,2,1,662.3683735
2,2,6,33,2,1,0,0,33,1,1,1,992.8906802
2,2,6,34,1,1,1,0,100,2,2,1,733.5369149
2,2,6,35,1,2,0,1,123,2,1,0,748.403809
2,2,6,36,1,1,0,1,74,2,2,1,593.9133959
2,2,6,37,2,2,0,0,85,2,1,0,686.6237381
2,2,6,38,2,2,1,1,77,2,2,1,695.1792878
2,2,6,39,2,2,1,1,62,1,1,1,824.061722
2,2,6,40,1,1,0,0,28,1,1,1,907.6791876
2,2,6,41,2,1,1,0,118,2,2,1,675.8996458
2,2,6,42,2,1,1,1,9,1,1,1,605.4736157
2,2,6,43,2,2,0,1,60,1,1,1,737.3559102
2,2,6,44,1,1,0,0,2,1,1,1,744.4867105
2,2,6,45,1,2,0,1,11,1,1,1,1061.745767
2,2,6,46,1,1,0,1,18,1,1,1,703.7563175
2,2,6,47,2,2,0,0,70,2,2,1,1008.041627
2,2,6,48,2,1,0,1,51,1,1,1,668.5348065
2,2,7,1,1,1,99,99,0,1,1,1,1145.434726
2,2,7,2,1,1,1,1,54,1,1,1,680.2101214
2,2,7,3,2,1,1,0,64,2,2,1,658.1428568
2,2,7,4,2,2,0,1,37,1,1,1,923.9352453
2,2,7,5,2,2,1,1,108,2,2,1,643.5276335
2,2,7,6,1,2,1,0,113,2,2,1,566.514221
2,2,7,7,1,1,0,1,68,2,1,0,595.9254857
2,2,7,8,2,2,0,0,66,2,2,1,1080.323294
2,2,7,9,2,2,1,1,22,1,1,1,809.4901005
2,2,7,10,1,2,1,0,65,2,2,1,606.0106214
2,2,7,11,1,1,0,1,31,1,1,1,730.3078249
2,2,7,12,2,1,1,0,56,1,1,1,705.4660809
2,2,7,13,1,2,0,0,33,1,1,1,673.1530596
2,2,7,14,1,1,0,1,89,2,2,1,618.7702077
2,2,7,15,1,1,1,1,117,2,2,1,734.4705039
2,2,7,16,2,1,1,0,119,2,2,1,605.4585474
2,2,7,17,1,2,0,0,23,1,1,1,721.3213877
2,2,7,18,2,1,0,0,2,1,1,1,697.1573941
2,2,7,19,2,1,1,1,21,1,1,1,641.8143432
2,2,7,20,1,2,0,0,86,2,2,1,660.7150356
2,2,7,21,1,2,1,1,19,1,1,1,630.4750182
2,2,7,22,2,2,1,0,40,1,1,1,649.8008273
2,2,7,23,1,1,0,0,36,1,1,1,643.3686153
2,2,7,24,2,1,1,0,84,2,2,1,622.5199532
2,2,7,25,2,1,1,1,75,2,2,1,593.8268341
2,2,7,26,2,2,0,1,80,2,2,1,766.7860906
2,2,7,27,1,2,1,0,38,1,1,1,660.7262567
2,2,7,28,2,2,1,0,4,1,1,1,654.4832001
2,2,7,29,2,1,0,1,79,2,2,1,664.0656334
2,2,7,30,1,2,0,0,87,2,1,0,618.6810806
2,2,7,31,1,2,1,1,112,2,2,1,669.6857633
2,2,7,32,1,2,1,1,88,2,2,1,647.0914306
2,2,7,33,2,1,0,0,12,1,1,1,721.7070702
2,2,7,34,1,1,1,0,85,2,1,0,928.0411778
2,2,7,35,1,2,0,1,81,2,2,1,758.9188707
2,2,7,36,1,1,0,1,128,2,2,1,805.5047137
2,2,7,37,2,2,0,0,77,2,2,1,641.2872761
2,2,7,38,2,2,1,1,95,2,2,1,708.3601435
2,2,7,39,2,2,1,1,44,1,2,0,956.5034648
2,2,7,40,1,1,0,0,53,1,1,1,785.8217559
2,2,7,41,2,1,1,0,116,2,2,1,854.5569382
2,2,7,42,2,1,1,1,43,1,1,1,712.9787169
2,2,7,43,2,2,0,1,9,1,1,1,689.2674114
2,2,7,44,1,1,0,0,26,1,1,1,658.0886752
2,2,7,45,1,2,0,1,45,1,1,1,668.4450386
2,2,7,46,1,1,0,1,34,1,1,1,558.2504179
2,2,7,47,2,2,0,0,122,2,2,1,644.0912494
2,2,7,48,2,1,0,1,41,1,1,1,574.9976356
2,2,8,1,1,1,99,99,0,1,1,1,810.7362753
2,2,8,2,1,1,1,1,33,1,1,1,622.9646262
2,2,8,3,2,1,1,0,64,2,2,1,1258.883124
2,2,8,4,2,2,0,1,10,1,1,1,733.095448
2,2,8,5,2,2,1,1,71,2,2,1,900.0360677
2,2,8,6,1,2,1,0,115,2,2,1,780.1205134
2,2,8,7,1,1,0,1,92,2,2,1,1057.211511
2,2,8,8,2,2,0,0,82,2,2,1,811.1421559
2,2,8,9,2,2,1,1,5,1,2,0,2495.241164
2,2,8,10,1,2,1,0,78,2,2,1,638.8997626
2,2,8,11,1,1,0,1,53,1,1,1,745.380545
2,2,8,12,2,1,1,0,55,1,1,1,656.1576971
2,2,8,13,1,2,0,0,47,1,1,1,706.2672623
2,2,8,14,1,1,0,1,75,2,2,1,586.5674731
2,2,8,15,1,1,1,1,97,2,2,1,623.6747573
2,2,8,16,2,1,1,0,89,2,2,1,555.3329522
2,2,8,17,1,2,0,0,64,1,1,1,681.1520467
2,2,8,18,2,1,0,0,57,1,1,1,633.3033573
2,2,8,19,2,1,1,1,41,1,1,1,699.7526567
2,2,8,20,1,2,0,0,106,2,2,1,763.9753846
2,2,8,21,1,2,1,1,51,1,1,1,634.1769937
2,2,8,22,2,2,1,0,3,1,1,1,765.167057
2,2,8,23,1,1,0,0,44,1,1,1,682.186625
2,2,8,24,2,1,1,0,83,2,2,1,683.0429491
2,2,8,25,2,1,1,1,128,2,2,1,762.9206083
2,2,8,26,2,2,0,1,113,2,1,0,1464.612258
2,2,8,27,1,2,1,0,30,1,1,1,697.5190314
2,2,8,28,2,2,1,0,43,1,1,1,753.5132221
2,2,8,29,2,1,0,1,112,2,2,1,767.1701699
2,2,8,30,1,2,0,0,72,2,2,1,1316.395038
2,2,8,31,1,2,1,1,90,2,2,1,819.244056
2,2,8,32,1,2,1,1,99,2,2,1,1590.416604
2,2,8,33,2,1,0,0,42,1,1,1,706.9270583
2,2,8,34,1,1,1,0,84,2,2,1,682.5113934
2,2,8,35,1,2,0,1,122,2,2,1,514.6682826
2,2,8,36,1,1,0,1,101,2,2,1,609.6058376
2,2,8,37,2,2,0,0,107,2,2,1,525.0079748
2,2,8,38,2,2,1,1,117,2,2,1,411.8782552
2,2,8,39,2,2,1,1,37,1,1,1,696.0166967
2,2,8,40,1,1,0,0,39,1,1,1,735.9721973
2,2,8,41,2,1,1,0,87,2,2,1,550.0491322
2,2,8,42,2,1,1,1,63,1,1,1,547.6160934
2,2,8,43,2,2,0,1,58,1,1,1,657.7738449
2,2,8,44,1,1,0,0,62,1,1,1,635.6373304
2,2,8,45,1,2,0,1,20,1,1,1,701.4931976
2,2,8,46,1,1,0,1,17,1,1,1,597.458919
2,2,8,47,2,2,0,0,79,2,1,0,897.454591
2,2,8,48,2,1,0,1,13,1,1,1,744.7072836
2,2,9,1,1,1,99,99,0,1,1,1,735.3598503
2,2,9,2,1,1,1,1,4,1,1,1,861.7582703
2,2,9,3,2,1,1,0,64,2,1,0,719.8793259
2,2,9,4,2,2,0,1,61,1,1,1,830.6385241
2,2,9,5,2,2,1,1,118,2,2,1,673.8577401
2,2,9,6,1,2,1,0,110,2,2,1,602.7126024
2,2,9,7,1,1,0,1,80,2,2,1,591.2126563
2,2,9,8,2,2,0,0,108,2,2,1,531.1070825
2,2,9,9,2,2,1,1,27,1,1,1,641.4129515
2,2,9,10,1,2,1,0,128,2,2,1,612.0048924
2,2,9,11,1,1,0,1,44,1,2,0,599.1619499
2,2,9,12,2,1,1,0,47,1,1,1,778.4405663
2,2,9,13,1,2,0,0,9,1,1,1,984.2819106
2,2,9,14,1,1,0,1,107,2,2,1,604.961616
2,2,9,15,1,1,1,1,75,2,2,1,1248.545355
2,2,9,16,2,1,1,0,66,2,2,1,786.4703308
2,2,9,17,1,2,0,0,2,1,1,1,542.4573077
2,2,9,18,2,1,0,0,53,1,1,1,764.9201946
2,2,9,19,2,1,1,1,1,1,1,1,1113.565736
2,2,9,20,1,2,0,0,81,2,2,1,745.1586891
2,2,9,21,1,2,1,1,8,1,2,0,2287.776297
2,2,9,22,2,2,1,0,7,1,1,1,751.5376811
2,2,9,23,1,1,0,0,28,1,2,0,773.4068152
2,2,9,24,2,1,1,0,87,2,2,1,762.0415208
2,2,9,25,2,1,1,1,117,2,2,1,871.6292446
2,2,9,26,2,2,0,1,86,2,2,1,704.2276007
2,2,9,27,1,2,1,0,64,1,1,1,624.1482841
2,2,9,28,2,2,1,0,57,1,1,1,922.6118051
2,2,9,29,2,1,0,1,122,2,2,1,609.6818196
2,2,9,30,1,2,0,0,69,2,2,1,621.2596721
2,2,9,31,1,2,1,1,93,2,1,0,760.1775485
2,2,9,32,1,2,1,1,78,2,2,1,669.3359879
2,2,9,33,2,1,0,0,50,1,1,1,654.2501231
2,2,9,34,1,1,1,0,98,2,2,1,992.0327524
2,2,9,35,1,2,0,1,127,2,2,1,780.3789182
2,2,9,36,1,1,0,1,85,2,1,0,649.0628044
2,2,9,37,2,2,0,0,95,2,2,1,650.5920696
2,2,9,38,2,2,1,1,121,2,2,1,771.8496579
2,2,9,39,2,2,1,1,30,1,1,1,784.9776139
2,2,9,40,1,1,0,0,37,1,1,1,909.2956563
2,2,9,41,2,1,1,0,123,2,1,0,1869.037188
2,2,9,42,2,1,1,1,29,1,1,1,629.6055489
2,2,9,43,2,2,0,1,21,1,1,1,832.5605253
2,2,9,44,1,1,0,0,49,1,1,1,714.3768566
2,2,9,45,1,2,0,1,15,1,1,1,689.9932511
2,2,9,46,1,1,0,1,55,1,1,1,674.7352239
2,2,9,47,2,2,0,0,96,2,1,0,779.2266794
2,2,9,48,2,1,0,1,56,1,1,1,623.8603848
2,2,10,1,1,1,99,99,0,1,1,1,670.4568081
2,2,10,2,1,1,1,1,6,1,1,1,528.3367718
2,2,10,3,2,1,1,0,64,2,1,0,615.1769152
2,2,10,4,2,2,0,1,61,1,1,1,705.3846484
2,2,10,5,2,2,1,1,124,2,2,1,704.9697912
2,2,10,6,1,2,1,0,125,2,2,1,720.8097088
2,2,10,7,1,1,0,1,94,2,2,1,648.0872161
2,2,10,8,2,2,0,0,78,2,2,1,850.2564006
2,2,10,9,2,2,1,1,17,1,1,1,628.4379209
2,2,10,10,1,2,1,0,79,2,2,1,736.2273955
2,2,10,11,1,1,0,1,27,1,1,1,622.6203013
2,2,10,12,2,1,1,0,48,1,1,1,746.0364942
2,2,10,13,1,2,0,0,12,1,1,1,600.011542
2,2,10,14,1,1,0,1,116,2,2,1,571.0193017
2,2,10,15,1,1,1,1,83,2,2,1,728.2873993
2,2,10,16,2,1,1,0,107,2,2,1,807.8704262
2,2,10,17,1,2,0,0,42,1,1,1,796.2374305
2,2,10,18,2,1,0,0,51,1,1,1,799.9355593
2,2,10,19,2,1,1,1,7,1,1,1,883.3850301
2,2,10,20,1,2,0,0,96,2,2,1,1116.516545
2,2,10,21,1,2,1,1,9,1,1,1,860.358207
2,2,10,22,2,2,1,0,24,1,1,1,1069.703717
2,2,10,23,1,1,0,0,29,1,1,1,1007.157089
2,2,10,24,2,1,1,0,106,2,2,1,546.2346249
2,2,10,25,2,1,1,1,102,2,2,1,584.450867
2,2,10,26,2,2,0,1,120,2,2,1,580.7242049
2,2,10,27,1,2,1,0,4,1,1,1,569.6317418
2,2,10,28,2,2,1,0,28,1,1,1,574.661646
2,2,10,29,2,1,0,1,91,2,2,1,667.6060264
2,2,10,30,1,2,0,0,92,2,2,1,668.3286605
2,2,10,31,1,2,1,1,108,2,2,1,477.0707996
2,2,10,32,1,2,1,1,67,2,2,1,493.9610055
2,2,10,33,2,1,0,0,49,1,1,1,582.265012
2,2,10,34,1,1,1,0,66,2,2,1,698.6901858
2,2,10,35,1,2,0,1,73,2,2,1,513.9642437
2,2,10,36,1,1,0,1,84,2,2,1,577.5579526
2,2,10,37,2,2,0,0,89,2,2,1,582.2566762
2,2,10,38,2,2,1,1,95,2,2,1,515.0001044
2,2,10,39,2,2,1,1,1,1,1,1,560.1429241
2,2,10,40,1,1,0,0,60,1,1,1,597.7009726
2,2,10,41,2,1,1,0,122,2,2,1,586.2779706
2,2,10,42,2,1,1,1,39,1,1,1,629.8302901
2,2,10,43,2,2,0,1,50,1,1,1,720.2922595
2,2,10,44,1,1,0,0,44,1,1,1,775.5227792
2,2,10,45,1,2,0,1,63,1,1,1,636.5859876
2,2,10,46,1,1,0,1,32,1,1,1,646.6926034
2,2,10,47,2,2,0,0,101,2,2,1,624.6038578
2,2,10,48,2,1,0,1,43,1,1,1,635.9473509
3,1,1,1,2,2,99,99,64,2,2,1,988.1249508
3,1,1,2,2,1,0,1,0,1,1,1,789.7237865
3,1,1,3,2,1,1,1,61,1,1,1,850.5648179
3,1,1,4,1,2,0,0,20,1,1,1,2469.0218
3,1,1,5,1,1,0,1,37,1,1,1,3198.900019
3,1,1,6,2,2,0,0,91,2,2,1,779.6909087
3,1,1,7,2,2,1,1,92,2,2,1,968.9924642
3,1,1,8,2,2,1,1,47,1,1,1,790.7150839
3,1,1,9,1,1,0,0,111,2,99,99,99000
3,1,1,10,2,1,1,0,100,2,2,1,935.802279
3,1,1,11,1,2,0,0,48,1,1,1,3799.419072
3,1,1,12,2,2,1,0,86,2,2,1,843.6010508
3,1,1,13,1,1,0,0,36,1,99,99,99000
3,1,1,14,1,2,0,1,120,2,2,1,2602.967159
3,1,1,15,1,2,1,1,83,2,2,1,1551.293704
3,1,1,16,2,1,0,0,77,2,2,1,829.5609853
3,1,1,17,2,1,1,1,44,1,1,1,857.4452293
3,1,1,18,1,1,1,0,74,2,2,1,1331.802786
3,1,1,19,1,2,0,1,75,2,2,1,1898.598494
3,1,1,20,1,2,1,1,43,1,1,1,2202.935099
3,1,1,21,2,1,0,0,110,2,2,1,1039.279675
3,1,1,22,2,1,1,1,117,2,2,1,794.6392358
3,1,1,23,1,1,1,0,7,1,1,1,1311.423162
3,1,1,24,1,2,0,1,124,2,2,1,1391.788776
3,1,1,25,2,2,1,0,126,2,2,1,1948.962937
3,1,1,26,1,2,1,0,30,1,1,1,1738.912747
3,1,1,27,1,1,0,1,60,1,1,1,2954.212132
3,1,1,28,1,1,1,1,125,2,2,1,1264.772878
3,1,1,29,2,2,0,0,123,2,2,1,1227.017981
3,1,1,30,2,1,0,1,106,2,2,1,614.4097182
3,1,1,31,2,1,1,1,50,1,1,1,690.3430265
3,1,1,32,1,2,0,0,34,1,1,1,2059.766058
3,1,1,33,1,1,0,1,70,2,99,99,99000
3,1,1,34,1,2,0,1,33,1,1,1,1298.715514
3,1,1,35,2,2,1,0,41,1,1,1,650.7456368
3,1,1,36,1,1,0,0,98,2,2,1,797.2409106
3,1,1,37,2,1,1,0,22,1,1,1,1057.8136
3,1,1,38,1,1,1,0,25,1,1,1,2380.592438
3,1,1,39,2,2,0,0,6,1,1,1,689.7592125
3,1,1,40,2,2,0,1,71,2,2,1,1034.67649
3,1,1,41,1,2,1,0,105,2,2,1,2389.985076
3,1,1,42,1,1,0,1,64,1,1,1,1114.769913
3,1,1,43,2,2,0,0,72,2,2,1,866.7721446
3,1,1,44,2,2,1,1,42,1,1,1,851.9017231
3,1,1,45,1,2,1,0,63,1,1,1,1894.744233
3,1,1,46,1,1,0,1,80,2,2,1,959.3180181
3,1,1,47,2,1,1,0,45,1,1,1,973.711065
3,1,1,48,2,1,1,1,46,1,2,0,1235.548203
3,1,2,1,2,2,99,99,64,2,2,1,1454.223834
3,1,2,2,2,1,0,1,0,1,1,1,1328.175509
3,1,2,3,2,1,1,1,23,1,1,1,1432.148553
3,1,2,4,1,2,0,0,1,1,1,1,1707.230026
3,1,2,5,1,1,0,1,28,1,1,1,2291.685381
3,1,2,6,2,2,0,0,81,2,2,1,756.2883417
3,1,2,7,2,2,1,1,127,2,2,1,1314.513753
3,1,2,8,2,2,1,1,46,1,2,0,1242.557496
3,1,2,9,1,1,0,0,100,2,1,0,2797.053039
3,1,2,10,2,1,1,0,115,2,2,1,785.7031333
3,1,2,11,1,2,0,0,33,1,1,1,1542.882104
3,1,2,12,2,2,1,0,80,2,2,1,1141.658692
3,1,2,13,1,1,0,0,52,1,2,0,4789.011091
3,1,2,14,1,2,0,1,83,2,2,1,1217.992751
3,1,2,15,1,2,1,1,90,2,2,1,2021.505573
3,1,2,16,2,1,0,0,112,2,2,1,1025.530394
3,1,2,17,2,1,1,1,49,1,1,1,700.6788719
3,1,2,18,1,1,1,0,96,2,2,1,2229.160235
3,1,2,19,1,2,0,1,121,2,2,1,1408.766184
3,1,2,20,1,2,1,1,3,1,1,1,1573.384053
3,1,2,21,2,1,0,0,97,2,2,1,1475.061275
3,1,2,22,2,1,1,1,71,2,2,1,708.7112013
3,1,2,23,1,1,1,0,14,1,1,1,2037.022646
3,1,2,24,1,2,0,1,123,2,2,1,1599.810846
3,1,2,25,2,2,1,0,75,2,2,1,740.2797882
3,1,2,26,1,2,1,0,57,1,1,1,1306.981561
3,1,2,27,1,1,0,1,45,1,99,99,99000
3,1,2,28,1,1,1,1,91,2,2,1,879.7333883
3,1,2,29,2,2,0,0,86,2,2,1,937.669137
3,1,2,30,2,1,0,1,104,2,2,1,616.8706492
3,1,2,31,2,1,1,1,20,1,1,1,596.1470208
3,1,2,32,1,2,0,0,62,1,1,1,1640.757644
3,1,2,33,1,1,0,1,103,2,2,1,2107.634945
3,1,2,34,1,2,0,1,7,1,1,1,1956.579127
3,1,2,35,2,2,1,0,44,1,1,1,866.4634055
3,1,2,36,1,1,0,0,118,2,2,1,683.9653174
3,1,2,37,2,1,1,0,61,1,1,1,661.3860531
3,1,2,38,1,1,1,0,55,1,1,1,2023.344218
3,1,2,39,2,2,0,0,27,1,1,1,634.8893689
3,1,2,40,2,2,0,1,88,2,2,1,629.8043211
3,1,2,41,1,2,1,0,99,2,2,1,1201.645964
3,1,2,42,1,1,0,1,37,1,1,1,2733.866492
3,1,2,43,2,2,0,0,93,2,1,0,2372.997729
3,1,2,44,2,2,1,1,64,1,1,1,1146.084905
3,1,2,45,1,2,1,0,58,1,1,1,1872.657732
3,1,2,46,1,1,0,1,67,2,2,1,1186.305542
3,1,2,47,2,1,1,0,43,1,1,1,631.2133614
3,1,2,48,2,1,1,1,60,1,1,1,810.202796
3,1,3,1,2,2,99,99,64,2,2,1,811.9503902
3,1,3,2,2,1,0,1,0,1,1,1,656.4863129
3,1,3,3,2,1,1,1,2,1,1,1,570.5012111
3,1,3,4,1,2,0,0,6,1,1,1,1992.158749
3,1,3,5,1,1,0,1,44,1,1,1,2013.586095
3,1,3,6,2,2,0,0,70,2,2,1,1017.727294
3,1,3,7,2,2,1,1,84,2,2,1,1293.409252
3,1,3,8,2,2,1,1,58,1,1,1,1110.558823
3,1,3,9,1,1,0,0,99,2,2,1,1702.721098
3,1,3,10,2,1,1,0,126,2,2,1,1255.172811
3,1,3,11,1,2,0,0,59,1,1,1,1665.042824
3,1,3,12,2,2,1,0,128,2,2,1,682.7178602
3,1,3,13,1,1,0,0,22,1,1,1,1772.066384
3,1,3,14,1,2,0,1,112,2,2,1,2001.470275
3,1,3,15,1,2,1,1,72,2,2,1,2053.78429
3,1,3,16,2,1,0,0,123,2,2,1,848.4437242
3,1,3,17,2,1,1,1,39,1,2,0,674.2277127
3,1,3,18,1,1,1,0,122,2,2,1,1107.019712
3,1,3,19,1,2,0,1,108,2,2,1,883.3436728
3,1,3,20,1,2,1,1,62,1,1,1,2428.301987
3,1,3,21,2,1,0,0,89,2,2,1,2096.056452
3,1,3,22,2,1,1,1,115,2,2,1,977.3787367
3,1,3,23,1,1,1,0,42,1,1,1,1735.005266
3,1,3,24,1,2,0,1,81,2,2,1,2685.82929
3,1,3,25,2,2,1,0,104,2,2,1,2183.318506
3,1,3,26,1,2,1,0,28,1,1,1,1211.98245
3,1,3,27,1,1,0,1,21,1,1,1,568.1300485
3,1,3,28,1,1,1,1,101,2,2,1,1485.77607
3,1,3,29,2,2,0,0,100,2,2,1,2550.900968
3,1,3,30,2,1,0,1,102,2,2,1,1021.599509
3,1,3,31,2,1,1,1,50,1,2,0,800.8095166
3,1,3,32,1,2,0,0,38,1,1,1,2124.804073
3,1,3,33,1,1,0,1,118,2,2,1,1475.881692
3,1,3,34,1,2,0,1,52,1,1,1,1061.915685
3,1,3,35,2,2,1,0,16,1,1,1,1599.788724
3,1,3,36,1,1,0,0,124,2,2,1,1244.55099
3,1,3,37,2,1,1,0,24,1,1,1,1175.627295
3,1,3,38,1,1,1,0,1,1,1,1,1180.942854
3,1,3,39,2,2,0,0,9,1,2,0,1226.752844
3,1,3,40,2,2,0,1,94,2,2,1,1253.145974
3,1,3,41,1,2,1,0,116,2,2,1,1447.432871
3,1,3,42,1,1,0,1,17,1,1,1,690.394002
3,1,3,43,2,2,0,0,74,2,2,1,1395.348725
3,1,3,44,2,2,1,1,40,1,1,1,800.1811393
3,1,3,45,1,2,1,0,7,1,1,1,1476.538603
3,1,3,46,1,1,0,1,119,2,2,1,894.1152142
3,1,3,47,2,1,1,0,46,1,1,1,1975.172363
3,1,3,48,2,1,1,1,25,1,1,1,612.7634333
3,1,4,1,2,2,99,99,64,2,2,1,1825.975708
3,1,4,2,2,1,0,1,0,1,1,1,1581.743715
3,1,4,3,2,1,1,1,4,1,1,1,874.2706734
3,1,4,4,1,2,0,0,1,1,1,1,1531.981039
3,1,4,5,1,1,0,1,34,1,1,1,634.8810331
3,1,4,6,2,2,0,0,115,2,2,1,1206.161304
3,1,4,7,2,2,1,1,108,2,2,1,834.1064621
3,1,4,8,2,2,1,1,15,1,1,1,684.9979721
3,1,4,9,1,1,0,0,90,2,2,1,1246.313653
3,1,4,10,2,1,1,0,81,2,2,1,1569.084477
3,1,4,11,1,2,0,0,61,1,1,1,1270.578957
3,1,4,12,2,2,1,0,117,2,2,1,1160.22083
3,1,4,13,1,1,0,0,62,1,1,1,1342.859341
3,1,4,14,1,2,0,1,83,2,2,1,773.8495646
3,1,4,15,1,2,1,1,118,2,2,1,674.9506677
3,1,4,16,2,1,0,0,70,2,2,1,1484.977454
3,1,4,17,2,1,1,1,7,1,1,1,1245.977022
3,1,4,18,1,1,1,0,97,2,2,1,1976.595509
3,1,4,19,1,2,0,1,110,2,2,1,3158.540561
3,1,4,20,1,2,1,1,60,1,1,1,1340.890533
3,1,4,21,2,1,0,0,86,2,2,1,979.8409496
3,1,4,22,2,1,1,1,73,2,2,1,1873.476545
3,1,4,23,1,1,1,0,55,1,1,1,1515.552499
3,1,4,24,1,2,0,1,104,2,2,1,1971.430953
3,1,4,25,2,2,1,0,123,2,2,1,1192.54924
3,1,4,26,1,2,1,0,21,1,1,1,1117.828123
3,1,4,27,1,1,0,1,11,1,1,1,1037.230715
3,1,4,28,1,1,1,1,75,2,2,1,1048.557217
3,1,4,29,2,2,0,0,96,2,2,1,1354.078121
3,1,4,30,2,1,0,1,99,2,2,1,528.1995544
3,1,4,31,2,1,1,1,51,1,2,0,423.3432557
3,1,4,32,1,2,0,0,42,1,1,1,1170.812835
3,1,4,33,1,1,0,1,92,2,2,1,1384.026391
3,1,4,34,1,2,0,1,58,1,1,1,2188.769037
3,1,4,35,2,2,1,0,17,1,1,1,1457.815844
3,1,4,36,1,1,0,0,128,2,2,1,836.057317
3,1,4,37,2,1,1,0,26,1,1,1,1807.139456
3,1,4,38,1,1,1,0,8,1,1,1,1003.706785
3,1,4,39,2,2,0,0,54,1,1,1,791.8666815
3,1,4,40,2,2,0,1,109,2,2,1,1660.850009
3,1,4,41,1,2,1,0,71,2,2,1,1686.957163
3,1,4,42,1,1,0,1,13,1,1,1,2608.15031
3,1,4,43,2,2,0,0,105,2,2,1,924.5225857
3,1,4,44,2,2,1,1,63,1,1,1,716.0741165
3,1,4,45,1,2,1,0,16,1,1,1,1099.556128
3,1,4,46,1,1,0,1,88,2,2,1,1108.271657
3,1,4,47,2,1,1,0,22,1,1,1,596.002751
3,1,4,48,2,1,1,1,31,1,1,1,520.9398731
3,1,5,1,2,2,99,99,64,2,2,1,751.3985401
3,1,5,2,2,1,0,1,0,1,1,1,517.9922702
3,1,5,3,2,1,1,1,34,1,1,1,645.4858622
3,1,5,4,1,2,0,0,39,1,1,1,888.1183788
3,1,5,5,1,1,0,1,21,1,1,1,1033.087272
3,1,5,6,2,2,0,0,87,2,2,1,1764.446667
3,1,5,7,2,2,1,1,98,2,2,1,714.6997014
3,1,5,8,2,2,1,1,12,1,1,1,610.6048292
3,1,5,9,1,1,0,0,118,2,2,1,1230.906867
3,1,5,10,2,1,1,0,71,2,2,1,786.7716956
3,1,5,11,1,2,0,0,42,1,1,1,991.4043751
3,1,5,12,2,2,1,0,99,2,2,1,780.6283454
3,1,5,13,1,1,0,0,26,1,1,1,1105.85529
3,1,5,14,1,2,0,1,90,2,2,1,1098.098357
3,1,5,15,1,2,1,1,91,2,1,0,810.4919777
3,1,5,16,2,1,0,0,126,2,2,1,1798.3457
3,1,5,17,2,1,1,1,47,1,1,1,618.7952147
3,1,5,18,1,1,1,0,93,2,1,0,1150.658914
3,1,5,19,1,2,0,1,120,2,2,1,988.3814314
3,1,5,20,1,2,1,1,2,1,1,1,1040.685508
3,1,5,21,2,1,0,0,109,2,2,1,763.5961138
3,1,5,22,2,1,1,1,122,2,2,1,601.816203
3,1,5,23,1,1,1,0,49,1,1,1,878.354806
3,1,5,24,1,2,0,1,65,2,2,1,815.6488398
3,1,5,25,2,2,1,0,86,2,2,1,715.1485421
3,1,5,26,1,2,1,0,53,1,1,1,1130.717552
3,1,5,27,1,1,0,1,10,1,1,1,1082.3761
3,1,5,28,1,1,1,1,82,2,2,1,1523.354317
3,1,5,29,2,2,0,0,106,2,2,1,1154.847563
3,1,5,30,2,1,0,1,84,2,2,1,929.2918411
3,1,5,31,2,1,1,1,52,1,1,1,600.9284598
3,1,5,32,1,2,0,0,38,1,1,1,1229.184601
3,1,5,33,1,1,0,1,101,2,2,1,960.5237977
3,1,5,34,1,2,0,1,19,1,1,1,1015.245845
3,1,5,35,2,2,1,0,9,1,1,1,602.6741299
3,1,5,36,1,1,0,0,68,2,2,1,1502.833308
3,1,5,37,2,1,1,0,20,1,1,1,599.3402041
3,1,5,38,1,1,1,0,46,1,1,1,2780.099675
3,1,5,39,2,2,0,0,30,1,1,1,1025.682359
3,1,5,40,2,2,0,1,76,2,2,1,612.3524234
3,1,5,41,1,2,1,0,127,2,2,1,1376.345441
3,1,5,42,1,1,0,1,64,1,1,1,1038.220089
3,1,5,43,2,2,0,0,74,2,2,1,641.1497379
3,1,5,44,2,2,1,1,14,1,1,1,947.9783722
3,1,5,45,1,2,1,0,51,1,1,1,1345.880041
3,1,5,46,1,1,0,1,110,2,2,1,1072.856504
3,1,5,47,2,1,1,0,37,1,1,1,1042.075953
3,1,5,48,2,1,1,1,59,1,1,1,572.914693
3,1,6,1,2,2,99,99,64,2,2,1,791.2928062
3,1,6,2,2,1,0,1,0,1,1,1,516.1491372
3,1,6,3,2,1,1,1,27,1,1,1,475.2292698
3,1,6,4,1,2,0,0,9,1,1,1,1269.224098
3,1,6,5,1,1,0,1,49,1,1,1,1462.57484
3,1,6,6,2,2,0,0,106,2,2,1,1233.161331
3,1,6,7,2,2,1,1,109,2,2,1,1460.043698
3,1,6,8,2,2,1,1,29,1,1,1,702.3745291
3,1,6,9,1,1,0,0,126,2,2,1,1166.474146
3,1,6,10,2,1,1,0,91,2,2,1,1308.321992
3,1,6,11,1,2,0,0,21,1,1,1,988.2916636
3,1,6,12,2,2,1,0,110,2,2,1,1857.080706
3,1,6,13,1,1,0,0,62,1,1,1,1146.935779
3,1,6,14,1,2,0,1,78,2,2,1,994.2118754
3,1,6,15,1,2,1,1,71,2,2,1,886.908432
3,1,6,16,2,1,0,0,111,2,2,1,776.1921934
3,1,6,17,2,1,1,1,14,1,1,1,677.5494567
3,1,6,18,1,1,1,0,116,2,2,1,1566.480879
3,1,6,19,1,2,0,1,114,2,2,1,1131.084961
3,1,6,20,1,2,1,1,34,1,1,1,977.9760158
3,1,6,21,2,1,0,0,105,2,2,1,1126.826743
3,1,6,22,2,1,1,1,92,2,2,1,1165.322227
3,1,6,23,1,1,1,0,36,1,1,1,1298.29745
3,1,6,24,1,2,0,1,70,2,2,1,1122.523961
3,1,6,25,2,2,1,0,107,2,2,1,857.0278073
3,1,6,26,1,2,1,0,28,1,1,1,2090.728068
3,1,6,27,1,1,0,1,26,1,1,1,746.9630302
3,1,6,28,1,1,1,1,74,2,2,1,1057.277555
3,1,6,29,2,2,0,0,67,2,2,1,634.8579498
3,1,6,30,2,1,0,1,95,2,2,1,565.3767297
3,1,6,31,2,1,1,1,37,1,1,1,817.9289517
3,1,6,32,1,2,0,0,30,1,1,1,877.159927
3,1,6,33,1,1,0,1,113,2,2,1,1422.268923
3,1,6,34,1,2,0,1,58,1,1,1,1041.042658
3,1,6,35,2,2,1,0,12,1,1,1,715.4531125
3,1,6,36,1,1,0,0,115,2,2,1,1306.608061
3,1,6,37,2,1,1,0,51,1,1,1,1427.014133
3,1,6,38,1,1,1,0,54,1,1,1,1158.706312
3,1,6,39,2,2,0,0,33,1,1,1,645.0613867
3,1,6,40,2,2,0,1,77,2,1,0,407.4469125
3,1,6,41,1,2,1,0,84,2,2,1,1098.367661
3,1,6,42,1,1,0,1,3,1,1,1,1026.629733
3,1,6,43,2,2,0,0,100,2,2,1,1190.308562
3,1,6,44,2,2,1,1,23,1,1,1,1435.032357
3,1,6,45,1,2,1,0,41,1,1,1,1454.31777
3,1,6,46,1,1,0,1,80,2,2,1,680.9696248
3,1,6,47,2,1,1,0,16,1,1,1,1129.864434
3,1,6,48,2,1,1,1,39,1,1,1,2209.472468
3,1,7,1,2,2,99,99,64,2,2,1,860.3312769
3,1,7,2,2,1,0,1,0,1,1,1,774.9142791
3,1,7,3,2,1,1,1,40,1,1,1,532.7043147
3,1,7,4,1,2,0,0,39,1,1,1,883.1609306
3,1,7,5,1,1,0,1,64,1,1,1,916.0298738
3,1,7,6,2,2,0,0,102,2,2,1,1211.576891
3,1,7,7,2,2,1,1,91,2,2,1,815.8543445
3,1,7,8,2,2,1,1,30,1,1,1,611.7916931
3,1,7,9,1,1,0,0,114,2,2,1,1103.689954
3,1,7,10,2,1,1,0,128,2,2,1,1055.376714
3,1,7,11,1,2,0,0,37,1,1,1,680.8205452
3,1,7,12,2,2,1,0,104,2,2,1,1306.845626
3,1,7,13,1,1,0,0,54,1,1,1,834.8345463
3,1,7,14,1,2,0,1,73,2,2,1,742.2280787
3,1,7,15,1,2,1,1,84,2,2,1,756.1575365
3,1,7,16,2,1,0,0,76,2,2,1,657.577958
3,1,7,17,2,1,1,1,56,1,1,1,1067.392507
3,1,7,18,1,1,1,0,67,2,2,1,837.2098762
3,1,7,19,1,2,0,1,96,2,2,1,1655.04361
3,1,7,20,1,2,1,1,15,1,1,1,623.9834954
3,1,7,21,2,1,0,0,87,2,2,1,955.4996644
3,1,7,22,2,1,1,1,83,2,2,1,761.5644671
3,1,7,23,1,1,1,0,47,1,1,1,968.1717264
3,1,7,24,1,2,0,1,94,2,2,1,685.6446238
3,1,7,25,2,2,1,0,126,2,2,1,837.832483
3,1,7,26,1,2,1,0,36,1,1,1,896.739651
3,1,7,27,1,1,0,1,53,1,1,1,689.6729716
3,1,7,28,1,1,1,1,89,2,2,1,706.5651007
3,1,7,29,2,2,0,0,72,2,2,1,770.8875351
3,1,7,30,2,1,0,1,103,2,2,1,608.4234621
3,1,7,31,2,1,1,1,63,1,1,1,1124.619727
3,1,7,32,1,2,0,0,23,1,1,1,1067.990747
3,1,7,33,1,1,0,1,101,2,2,1,485.8225575
3,1,7,34,1,2,0,1,60,1,1,1,671.0765292
3,1,7,35,2,2,1,0,42,1,1,1,1376.534916
3,1,7,36,1,1,0,0,90,2,2,1,997.9798952
3,1,7,37,2,1,1,0,34,1,1,1,1178.527128
3,1,7,38,1,1,1,0,16,1,1,1,958.8034544
3,1,7,39,2,2,0,0,58,1,1,1,1340.784414
3,1,7,40,2,2,0,1,82,2,2,1,675.8647002
3,1,7,41,1,2,1,0,118,2,2,1,925.2519519
3,1,7,42,1,1,0,1,24,1,1,1,1013.20971
3,1,7,43,2,2,0,0,116,2,2,1,1241.250727
3,1,7,44,2,2,1,1,41,1,1,1,692.1255663
3,1,7,45,1,2,1,0,3,1,1,1,949.0969484
3,1,7,46,1,1,0,1,77,2,2,1,955.3787974
3,1,7,47,2,1,1,0,21,1,1,1,497.8482882
3,1,7,48,2,1,1,1,43,1,1,1,698.8831875
3,1,8,1,2,2,99,99,64,2,2,1,761.2153334
3,1,8,2,2,1,0,1,0,1,1,1,527.1691438
3,1,8,3,2,1,1,1,2,1,1,1,543.062923
3,1,8,4,1,2,0,0,46,1,1,1,1477.691483
3,1,8,5,1,1,0,1,30,1,1,1,463.6594323
3,1,8,6,2,2,0,0,117,2,2,1,1449.533767
3,1,8,7,2,2,1,1,87,2,2,1,1075.771405
3,1,8,8,2,2,1,1,29,1,1,1,565.4071872
3,1,8,9,1,1,0,0,71,2,2,1,1083.342711
3,1,8,10,2,1,1,0,107,2,2,1,996.253781
3,1,8,11,1,2,0,0,1,1,1,1,497.175348
3,1,8,12,2,2,1,0,76,2,2,1,2362.260812
3,1,8,13,1,1,0,0,40,1,1,1,1072.452868
3,1,8,14,1,2,0,1,78,2,1,0,793.7928503
3,1,8,15,1,2,1,1,74,2,2,1,853.8266094
3,1,8,16,2,1,0,0,88,2,2,1,1263.360953
3,1,8,17,2,1,1,1,25,1,1,1,609.6205851
3,1,8,18,1,1,1,0,104,2,2,1,1349.907106
3,1,8,19,1,2,0,1,101,2,2,1,1964.411401
3,1,8,20,1,2,1,1,52,1,1,1,1074.528436
3,1,8,21,2,1,0,0,70,2,2,1,604.1437639
3,1,8,22,2,1,1,1,95,2,2,1,592.2796153
3,1,8,23,1,1,1,0,27,1,1,1,781.1922822
3,1,8,24,1,2,0,1,113,2,2,1,642.4324615
3,1,8,25,2,2,1,0,99,2,2,1,709.0590526
3,1,8,26,1,2,1,0,63,1,1,1,1453.448301
3,1,8,27,1,1,0,1,44,1,1,1,1575.365044
3,1,8,28,1,1,1,1,119,2,2,1,692.7404786
3,1,8,29,2,2,0,0,124,2,2,1,1508.932737
3,1,8,30,2,1,0,1,120,2,2,1,765.286
3,1,8,31,2,1,1,1,54,1,1,1,706.9921405
3,1,8,32,1,2,0,0,24,1,1,1,1346.73893
3,1,8,33,1,1,0,1,116,2,2,1,905.2666677
3,1,8,34,1,2,0,1,42,1,1,1,793.4126179
3,1,8,35,2,2,1,0,58,1,1,1,598.1668052
3,1,8,36,1,1,0,0,83,2,2,1,1554.10473
3,1,8,37,2,1,1,0,12,1,1,1,1376.352814
3,1,8,38,1,1,1,0,31,1,1,1,1118.351984
3,1,8,39,2,2,0,0,39,1,1,1,1085.66386
3,1,8,40,2,2,0,1,122,2,2,1,582.5064243
3,1,8,41,1,2,1,0,128,2,2,1,1050.837329
3,1,8,42,1,1,0,1,26,1,1,1,1220.386997
3,1,8,43,2,2,0,0,123,2,2,1,2983.627565
3,1,8,44,2,2,1,1,56,1,1,1,788.8966366
3,1,8,45,1,2,1,0,7,1,1,1,1521.544526
3,1,8,46,1,1,0,1,102,2,2,1,3953.475071
3,1,8,47,2,1,1,0,48,1,1,1,1231.200538
3,1,8,48,2,1,1,1,28,1,1,1,922.3800111
3,1,9,1,2,2,99,99,64,2,2,1,1585.649593
3,1,9,2,2,1,0,1,0,1,1,1,949.7064096
3,1,9,3,2,1,1,1,13,1,1,1,1179.904429
3,1,9,4,1,2,0,0,18,1,1,1,624.3274999
3,1,9,5,1,1,0,1,34,1,1,1,715.4787607
3,1,9,6,2,2,0,0,96,2,2,1,2866.42814
3,1,9,7,2,2,1,1,112,2,2,1,651.5455358
3,1,9,8,2,2,1,1,46,1,1,1,2517.490851
3,1,9,9,1,1,0,0,109,2,2,1,1564.109075
3,1,9,10,2,1,1,0,121,2,2,1,1234.107103
3,1,9,11,1,2,0,0,9,1,1,1,1420.049726
3,1,9,12,2,2,1,0,126,2,2,1,1030.909752
3,1,9,13,1,1,0,0,12,1,1,1,1177.882721
3,1,9,14,1,2,0,1,76,2,2,1,878.8905293
3,1,9,15,1,2,1,1,82,2,2,1,1023.772861
3,1,9,16,2,1,0,0,95,2,2,1,962.6840046
3,1,9,17,2,1,1,1,29,1,1,1,1264.304801
3,1,9,18,1,1,1,0,119,2,2,1,1090.388231
3,1,9,19,1,2,0,1,90,2,2,1,682.2558744
3,1,9,20,1,2,1,1,56,1,1,1,642.8332124
3,1,9,21,2,1,0,0,127,2,2,1,1372.796712
3,1,9,22,2,1,1,1,84,2,2,1,553.6908354
3,1,9,23,1,1,1,0,45,1,1,1,975.789519
3,1,9,24,1,2,0,1,98,2,2,1,621.1224548
3,1,9,25,2,2,1,0,124,2,2,1,1256.104157
3,1,9,26,1,2,1,0,31,1,1,1,825.7189067
3,1,9,27,1,1,0,1,44,1,1,1,1692.389421
3,1,9,28,1,1,1,1,75,2,2,1,716.965707
3,1,9,29,2,2,0,0,115,2,2,1,1419.563694
3,1,9,30,2,1,0,1,72,2,2,1,702.7210984
3,1,9,31,2,1,1,1,26,1,1,1,646.5329439
3,1,9,32,1,2,0,0,63,1,1,1,1264.330129
3,1,9,33,1,1,0,1,106,2,2,1,1361.972592
3,1,9,34,1,2,0,1,51,1,1,1,992.6249022
3,1,9,35,2,2,1,0,60,1,1,1,829.2448735
3,1,9,36,1,1,0,0,120,2,2,1,1513.025204
3,1,9,37,2,1,1,0,7,1,1,1,705.5055154
3,1,9,38,1,1,1,0,28,1,1,1,1273.689425
3,1,9,39,2,2,0,0,48,1,1,1,571.2725767
3,1,9,40,2,2,0,1,104,2,2,1,1040.191784
3,1,9,41,1,2,1,0,97,2,2,1,1146.883521
3,1,9,42,1,1,0,1,24,1,1,1,1040.601511
3,1,9,43,2,2,0,0,91,2,2,1,1995.550383
3,1,9,44,2,2,1,1,39,1,1,1,560.7934226
3,1,9,45,1,2,1,0,20,1,1,1,1598.771138
3,1,9,46,1,1,0,1,125,2,2,1,690.6395825
3,1,9,47,2,1,1,0,6,1,1,1,1363.298276
3,1,9,48,2,1,1,1,2,1,1,1,593.6190849
3,1,10,1,2,2,99,99,64,2,2,1,609.6481569
3,1,10,2,2,1,0,1,0,1,1,1,573.5847484
3,1,10,3,2,1,1,1,24,1,1,1,490.495312
3,1,10,4,1,2,0,0,47,1,1,1,794.7511259
3,1,10,5,1,1,0,1,54,1,1,1,854.3539979
3,1,10,6,2,2,0,0,83,2,2,1,863.8190916
3,1,10,7,2,2,1,1,80,2,2,1,465.4919859
3,1,10,8,2,2,1,1,4,1,1,1,546.2900889
3,1,10,9,1,1,0,0,81,2,2,1,976.8436542
3,1,10,10,2,1,1,0,69,2,2,1,677.6998183
3,1,10,11,1,2,0,0,51,1,1,1,1014.417412
3,1,10,12,2,2,1,0,79,2,2,1,617.9619734
3,1,10,13,1,1,0,0,48,1,1,1,860.8032009
3,1,10,14,1,2,0,1,66,2,2,1,1005.834932
3,1,10,15,1,2,1,1,89,2,2,1,913.7734859
3,1,10,16,2,1,0,0,115,2,2,1,689.0356168
3,1,10,17,2,1,1,1,22,1,1,1,577.2216422
3,1,10,18,1,1,1,0,106,2,2,1,1101.96961
3,1,10,19,1,2,0,1,72,2,2,1,877.9630316
3,1,10,20,1,2,1,1,12,1,1,1,782.9264109
3,1,10,21,2,1,0,0,90,2,2,1,778.8977432
3,1,10,22,2,1,1,1,68,2,2,1,719.8318774
3,1,10,23,1,1,1,0,56,1,1,1,1358.77492
3,1,10,24,1,2,0,1,116,2,2,1,1044.388767
3,1,10,25,2,2,1,0,124,2,2,1,1014.666198
3,1,10,26,1,2,1,0,39,1,1,1,1729.989147
3,1,10,27,1,1,0,1,63,1,1,1,1704.985821
3,1,10,28,1,1,1,1,100,2,2,1,688.5601659
3,1,10,29,2,2,0,0,107,2,2,1,584.8657247
3,1,10,30,2,1,0,1,98,2,2,1,629.0281471
3,1,10,31,2,1,1,1,16,1,1,1,648.0061044
3,1,10,32,1,2,0,0,15,1,1,1,913.6103
3,1,10,33,1,1,0,1,65,2,2,1,537.1138565
3,1,10,34,1,2,0,1,46,1,1,1,1327.003394
3,1,10,35,2,2,1,0,43,1,1,1,1590.069073
3,1,10,36,1,1,0,0,113,2,2,1,1010.149576
3,1,10,37,2,1,1,0,59,1,1,1,718.2231029
3,1,10,38,1,1,1,0,50,1,1,1,876.8640123
3,1,10,39,2,2,0,0,1,1,1,1,1237.840498
3,1,10,40,2,2,0,1,127,2,2,1,752.0734048
3,1,10,41,1,2,1,0,91,2,2,1,1277.618706
3,1,10,42,1,1,0,1,10,1,1,1,1071.072682
3,1,10,43,2,2,0,0,119,2,2,1,1831.490361
3,1,10,44,2,2,1,1,52,1,1,1,658.2961036
3,1,10,45,1,2,1,0,14,1,1,1,1147.450022
3,1,10,46,1,1,0,1,112,2,2,1,1362.239973
3,1,10,47,2,1,1,0,60,1,1,1,1567.535975
3,1,10,48,2,1,1,1,23,1,1,1,612.3790336
4,2,1,1,2,2,99,99,0,1,1,1,1285.102809
4,2,1,2,2,1,0,1,64,2,2,1,1444.551632
4,2,1,3,2,2,0,1,86,2,2,1,1159.553019
4,2,1,4,1,2,1,0,36,1,1,1,1358.050363
4,2,1,5,1,1,0,1,110,2,2,1,1116.694479
4,2,1,6,1,1,1,1,81,2,2,1,1068.181825
4,2,1,7,2,2,0,0,124,2,2,1,1253.939461
4,2,1,8,2,1,0,1,63,1,1,1,1384.12161
4,2,1,9,2,1,1,1,18,1,1,1,996.9809032
4,2,1,10,1,2,0,0,107,2,2,1,945.6120185
4,2,1,11,2,1,0,0,57,1,1,1,1368.834408
4,2,1,12,2,2,0,1,19,1,1,1,814.2436468
4,2,1,13,1,2,1,0,21,1,1,1,1586.242383
4,2,1,14,1,2,1,1,39,1,1,1,1126.871626
4,2,1,15,1,1,0,1,95,2,1,0,1382.497447
4,2,1,16,2,1,1,0,46,1,1,1,2123.331233
4,2,1,17,1,2,0,0,60,1,1,1,1586.919172
4,2,1,18,1,2,1,1,66,2,2,1,1208.458729
4,2,1,19,2,2,1,0,28,1,1,1,1180.253884
4,2,1,20,1,1,0,0,68,2,2,1,1377.923437
4,2,1,21,1,1,1,1,42,1,1,1,2223.897254
4,2,1,22,1,1,1,1,10,1,1,1,1459.314652
4,2,1,23,2,2,0,0,88,2,2,1,925.471243
4,2,1,24,1,2,1,0,79,2,2,1,1029.213775
4,2,1,25,1,2,1,1,34,1,1,1,1792.962815
4,2,1,26,2,1,0,0,45,1,1,1,1413.875597
4,2,1,27,2,1,0,1,16,1,1,1,1226.010974
4,2,1,28,1,2,0,0,117,2,2,1,1813.917596
4,2,1,29,1,2,1,1,102,2,2,1,1762.050177
4,2,1,30,2,2,1,0,109,2,2,1,1088.848707
4,2,1,31,2,1,0,1,22,1,1,1,1625.479739
4,2,1,32,1,1,1,0,122,2,2,1,1077.469627
4,2,1,33,2,1,1,0,25,1,1,1,1270.791515
4,2,1,34,2,2,0,1,50,1,1,1,1576.373653
4,2,1,35,1,1,0,0,69,2,2,1,814.0022345
4,2,1,36,2,1,1,0,5,1,1,1,1250.281728
4,2,1,37,2,1,1,1,64,1,1,1,996.8795939
4,2,1,38,2,2,0,1,65,2,2,1,889.4886258
4,2,1,39,1,1,0,0,53,1,1,1,1002.468946
4,2,1,40,2,2,0,0,126,2,2,1,1870.846017
4,2,1,41,1,2,1,0,8,1,1,1,912.4606261
4,2,1,42,1,2,1,1,97,2,2,1,752.8396407
4,2,1,43,1,1,0,1,116,2,2,1,1623.029708
4,2,1,44,2,1,1,0,128,2,2,1,1970.734929
4,2,1,45,2,2,0,1,90,2,2,1,1752.378616
4,2,1,46,2,2,1,1,127,2,2,1,1150.697707
4,2,1,47,1,1,0,0,14,1,1,1,1421.258069
4,2,1,48,1,1,1,1,99,2,2,1,728.9712406
4,2,2,1,2,2,99,99,0,1,1,1,1105.944097
4,2,2,2,2,1,0,1,64,2,2,1,986.0679768
4,2,2,3,2,2,0,1,91,2,1,0,1158.83359
4,2,2,4,1,2,1,0,14,1,1,1,869.1612603
4,2,2,5,1,1,0,1,66,2,2,1,734.4150399
4,2,2,6,1,1,1,1,67,2,2,1,877.1749949
4,2,2,7,2,2,0,0,113,2,2,1,1342.863188
4,2,2,8,2,1,0,1,22,1,1,1,1069.874276
4,2,2,9,2,1,1,1,64,1,1,1,1159.565843
4,2,2,10,1,2,0,0,123,2,2,1,1142.028023
4,2,2,11,2,1,0,0,26,1,2,0,804.8038804
4,2,2,12,2,2,0,1,9,1,1,1,824.7042056
4,2,2,13,1,2,1,0,39,1,1,1,843.9607648
4,2,2,14,1,2,1,1,24,1,1,1,887.0459693
4,2,2,15,1,1,0,1,79,2,2,1,752.0785346
4,2,2,16,2,1,1,0,3,1,1,1,1237.644932
4,2,2,17,1,2,0,0,52,1,1,1,2256.771968
4,2,2,18,1,2,1,1,86,2,2,1,1259.110429
4,2,2,19,2,2,1,0,20,1,1,1,1013.282807
4,2,2,20,1,1,0,0,127,2,2,1,817.9334402
4,2,2,21,1,1,1,1,57,1,1,1,1485.294207
4,2,2,22,1,1,1,1,50,1,1,1,942.2059571
4,2,2,23,2,2,0,0,101,2,2,1,917.0952295
4,2,2,24,1,2,1,0,111,2,2,1,1789.227496
4,2,2,25,1,2,1,1,19,1,1,1,1041.818832
4,2,2,26,2,1,0,0,21,1,1,1,1044.741428
4,2,2,27,2,1,0,1,25,1,1,1,2663.855961
4,2,2,28,1,2,0,0,84,2,2,1,1426.218082
4,2,2,29,1,2,1,1,102,2,2,1,1221.863363
4,2,2,30,2,2,1,0,116,2,2,1,1609.957216
4,2,2,31,2,1,0,1,7,1,1,1,1750.365244
4,2,2,32,1,1,1,0,96,2,1,0,836.0932241
4,2,2,33,2,1,1,0,62,1,1,1,1663.203538
4,2,2,34,2,2,0,1,41,1,1,1,1009.113715
4,2,2,35,1,1,0,0,108,2,2,1,764.8111903
4,2,2,36,2,1,1,0,48,1,1,1,1482.356864
4,2,2,37,2,1,1,1,30,1,1,1,1091.355163
4,2,2,38,2,2,0,1,94,2,2,1,2132.316388
4,2,2,39,1,1,0,0,36,1,1,1,931.6799957
4,2,2,40,2,2,0,0,100,2,2,1,778.2876394
4,2,2,41,1,2,1,0,56,1,1,1,3080.409215
4,2,2,42,1,2,1,1,69,2,2,1,801.7447093
4,2,2,43,1,1,0,1,119,2,2,1,781.7841107
4,2,2,44,2,1,1,0,83,2,2,1,1155.240619
4,2,2,45,2,2,0,1,87,2,2,1,1017.197982
4,2,2,46,2,2,1,1,97,2,2,1,1133.169827
4,2,2,47,1,1,0,0,6,1,1,1,900.1691164
4,2,2,48,1,1,1,1,90,2,2,1,932.2503442
4,2,3,1,2,2,99,99,0,1,1,1,1082.176045
4,2,3,2,2,1,0,1,64,2,2,1,818.9404467
4,2,3,3,2,2,0,1,99,2,2,1,734.4371616
4,2,3,4,1,2,1,0,3,1,1,1,949.4255637
4,2,3,5,1,1,0,1,97,2,2,1,796.0854657
4,2,3,6,1,1,1,1,74,2,2,1,680.8545291
4,2,3,7,2,2,0,0,108,2,2,1,930.1863173
4,2,3,8,2,1,0,1,37,1,1,1,1617.840145
4,2,3,9,2,1,1,1,53,1,1,1,2213.723633
4,2,3,10,1,2,0,0,100,2,2,1,1314.21303
4,2,3,11,2,1,0,0,18,1,1,1,874.1754554
4,2,3,12,2,2,0,1,13,1,1,1,820.1494324
4,2,3,13,1,2,1,0,50,1,1,1,1159.375085
4,2,3,14,1,2,1,1,32,1,1,1,2238.095376
4,2,3,15,1,1,0,1,115,2,2,1,1392.706655
4,2,3,16,2,1,1,0,44,1,1,1,1733.810387
4,2,3,17,1,2,0,0,64,1,2,0,1381.218892
4,2,3,18,1,2,1,1,107,2,2,1,833.3267607
4,2,3,19,2,2,1,0,9,1,1,1,924.7505325
4,2,3,20,1,1,0,0,106,2,2,1,1028.277942
4,2,3,21,1,1,1,1,30,1,1,1,1551.966324
4,2,3,22,1,1,1,1,62,1,1,1,998.120639
4,2,3,23,2,2,0,0,87,2,2,1,858.8510635
4,2,3,24,1,2,1,0,109,2,2,1,901.3941321
4,2,3,25,1,2,1,1,27,1,1,1,997.2995804
4,2,3,26,2,1,0,0,49,1,1,1,1114.198282
4,2,3,27,2,1,0,1,60,1,1,1,1322.604752
4,2,3,28,1,2,0,0,83,2,2,1,946.241037
4,2,3,29,1,2,1,1,86,2,2,1,833.0837456
4,2,3,30,2,2,1,0,123,2,1,0,972.2863156
4,2,3,31,2,1,0,1,7,1,1,1,2185.520712
4,2,3,32,1,1,1,0,117,2,2,1,1110.416477
4,2,3,33,2,1,1,0,6,1,1,1,1967.208321
4,2,3,34,2,2,0,1,46,1,1,1,1412.54799
4,2,3,35,1,1,0,0,128,2,2,1,1024.825072
4,2,3,36,2,1,1,0,52,1,1,1,3980.719717
4,2,3,37,2,1,1,1,24,1,1,1,1474.724644
4,2,3,38,2,2,0,1,78,2,2,1,764.1331195
4,2,3,39,1,1,0,0,31,1,1,1,842.5421072
4,2,3,40,2,2,0,0,110,2,2,1,1813.758257
4,2,3,41,1,2,1,0,36,1,1,1,4441.932966
4,2,3,42,1,2,1,1,84,2,2,1,1501.531028
4,2,3,43,1,1,0,1,76,2,2,1,1213.356224
4,2,3,44,2,1,1,0,82,2,1,0,1537.98557
4,2,3,45,2,2,0,1,69,2,2,1,791.5903237
4,2,3,46,2,2,1,1,98,2,2,1,1109.037252
4,2,3,47,1,1,0,0,11,1,1,1,1060.884313
4,2,3,48,1,1,1,1,65,2,2,1,798.3594863
4,2,4,1,2,2,99,99,0,1,1,1,1223.450978
4,2,4,2,2,1,0,1,64,2,1,0,1234.982023
4,2,4,3,2,2,0,1,111,2,2,1,853.485811
4,2,4,4,1,2,1,0,14,1,1,1,2336.230602
4,2,4,5,1,1,0,1,121,2,2,1,1567.453901
4,2,4,6,1,1,1,1,80,2,2,1,660.9263113
4,2,4,7,2,2,0,0,126,2,2,1,1870.894428
4,2,4,8,2,1,0,1,15,1,1,1,856.6767499
4,2,4,9,2,1,1,1,58,1,1,1,930.9442169
4,2,4,10,1,2,0,0,124,2,2,1,922.5172284
4,2,4,11,2,1,0,0,46,1,1,1,1178.146576
4,2,4,12,2,2,0,1,33,1,1,1,847.8153464
4,2,4,13,1,2,1,0,16,1,1,1,3146.564844
4,2,4,14,1,2,1,1,12,1,1,1,1345.213833
4,2,4,15,1,1,0,1,104,2,2,1,672.1406025
4,2,4,16,2,1,1,0,3,1,1,1,913.6660849
4,2,4,17,1,2,0,0,1,1,1,1,1114.044073
4,2,4,18,1,2,1,1,113,2,2,1,754.4102632
4,2,4,19,2,2,1,0,44,1,1,1,816.4734244
4,2,4,20,1,1,0,0,122,2,2,1,2700.313067
4,2,4,21,1,1,1,1,52,1,1,1,916.8749768
4,2,4,22,1,1,1,1,32,1,1,1,900.4502837
4,2,4,23,2,2,0,0,71,2,99,99,99000
4,2,4,24,1,2,1,0,65,2,2,1,1072.924151
4,2,4,25,1,2,1,1,54,1,1,1,818.6868518
4,2,4,26,2,1,0,0,29,1,1,1,1190.175192
4,2,4,27,2,1,0,1,60,1,1,1,1035.136552
4,2,4,28,1,2,0,0,93,2,2,1,2622.297456
4,2,4,29,1,2,1,1,101,2,2,1,810.3092355
4,2,4,30,2,2,1,0,107,2,2,1,846.4742741
4,2,4,31,2,1,0,1,20,1,1,1,769.0078532
4,2,4,32,1,1,1,0,91,2,2,1,1430.893081
4,2,4,33,2,1,1,0,51,1,1,1,1282.683556
4,2,4,34,2,2,0,1,4,1,1,1,1299.119791
4,2,4,35,1,1,0,0,66,2,2,1,1011.538418
4,2,4,36,2,1,1,0,42,1,1,1,1656.257084
4,2,4,37,2,1,1,1,6,1,1,1,1138.601444
4,2,4,38,2,2,0,1,97,2,2,1,657.0835919
4,2,4,39,1,1,0,0,18,1,1,1,835.2657538
4,2,4,40,2,2,0,0,81,2,2,1,622.2243593
4,2,4,41,1,2,1,0,64,1,2,0,769.0508137
4,2,4,42,1,2,1,1,68,2,2,1,1389.720901
4,2,4,43,1,1,0,1,108,2,2,1,867.1761011
4,2,4,44,2,1,1,0,85,2,2,1,1604.295728
4,2,4,45,2,2,0,1,112,2,2,1,1216.046705
4,2,4,46,2,2,1,1,77,2,2,1,587.577044
4,2,4,47,1,1,0,0,8,1,1,1,1543.951949
4,2,4,48,1,1,1,1,103,2,2,1,1470.87968
4,2,5,1,2,2,99,99,0,1,1,1,1200.784189
4,2,5,2,2,1,0,1,64,2,2,1,805.1196723
4,2,5,3,2,2,0,1,127,2,2,1,665.3720811
4,2,5,4,1,2,1,0,43,1,1,1,1339.339466
4,2,5,5,1,1,0,1,84,2,2,1,1465.971284
4,2,5,6,1,1,1,1,118,2,2,1,931.8415783
4,2,5,7,2,2,0,0,119,2,2,1,586.4789868
4,2,5,8,2,1,0,1,47,1,2,0,679.6817719
4,2,5,9,2,1,1,1,21,1,1,1,824.606102
4,2,5,10,1,2,0,0,87,2,2,1,940.2586282
4,2,5,11,2,1,0,0,34,1,1,1,995.1614947
4,2,5,12,2,2,0,1,24,1,1,1,824.1014769
4,2,5,13,1,2,1,0,17,1,1,1,1275.649898
4,2,5,14,1,2,1,1,40,1,1,1,965.2289329
4,2,5,15,1,1,0,1,72,2,2,1,667.237977
4,2,5,16,2,1,1,0,59,1,1,1,908.4175308
4,2,5,17,1,2,0,0,33,1,1,1,828.7303089
4,2,5,18,1,2,1,1,104,2,2,1,783.6474418
4,2,5,19,2,2,1,0,38,1,1,1,1004.710907
4,2,5,20,1,1,0,0,116,2,2,1,1297.126296
4,2,5,21,1,1,1,1,15,1,1,1,801.9521376
4,2,5,22,1,1,1,1,45,1,1,1,1029.95308
4,2,5,23,2,2,0,0,108,2,2,1,673.4502562
4,2,5,24,1,2,1,0,106,2,2,1,874.3117102
4,2,5,25,1,2,1,1,25,1,2,0,1156.115538
4,2,5,26,2,1,0,0,16,1,1,1,761.6481441
4,2,5,27,2,1,0,1,9,1,1,1,743.7727326
4,2,5,28,1,2,0,0,78,2,2,1,1086.930233
4,2,5,29,1,2,1,1,79,2,2,1,807.5690614
4,2,5,30,2,2,1,0,70,2,2,1,1164.323878
4,2,5,31,2,1,0,1,44,1,2,0,882.3844353
4,2,5,32,1,1,1,0,95,2,2,1,1690.498839
4,2,5,33,2,1,1,0,3,1,1,1,803.3573306
4,2,5,34,2,2,0,1,55,1,1,1,671.0178591
4,2,5,35,1,1,0,0,96,2,2,1,1817.462798
4,2,5,36,2,1,1,0,29,1,1,1,804.5243169
4,2,5,37,2,1,1,1,46,1,1,1,1353.22372
4,2,5,38,2,2,0,1,65,2,2,1,647.0590499
4,2,5,39,1,1,0,0,30,1,1,1,946.0118078
4,2,5,40,2,2,0,0,125,2,2,1,1129.454386
4,2,5,41,1,2,1,0,35,1,1,1,2304.778713
4,2,5,42,1,2,1,1,112,2,1,0,1225.10688
4,2,5,43,1,1,0,1,111,2,2,1,795.6629139
4,2,5,44,2,1,1,0,97,2,2,1,816.9956831
4,2,5,45,2,2,0,1,92,2,2,1,660.277416
4,2,5,46,2,2,1,1,82,2,2,1,998.3889814
4,2,5,47,1,1,0,0,13,1,1,1,962.6766308
4,2,5,48,1,1,1,1,115,2,2,1,2649.442716
4,2,6,1,2,2,99,99,0,1,1,1,818.9077456
4,2,6,2,2,1,0,1,64,2,2,1,1542.337404
4,2,6,3,2,2,0,1,99,2,2,1,661.4668439
4,2,6,4,1,2,1,0,55,1,1,1,2247.610162
4,2,6,5,1,1,0,1,77,2,2,1,1409.90047
4,2,6,6,1,1,1,1,110,2,2,1,2446.40791
4,2,6,7,2,2,0,0,87,2,2,1,601.3603085
4,2,6,8,2,1,0,1,19,1,1,1,789.5615627
4,2,6,9,2,1,1,1,15,1,1,1,1050.49076
4,2,6,10,1,2,0,0,95,2,2,1,1108.939148
4,2,6,11,2,1,0,0,29,1,1,1,773.4565083
4,2,6,12,2,2,0,1,64,1,2,0,746.5863242
4,2,6,13,1,2,1,0,59,1,1,1,1473.250201
4,2,6,14,1,2,1,1,62,1,1,1,1651.314383
4,2,6,15,1,1,0,1,97,2,2,1,1013.488953
4,2,6,16,2,1,1,0,58,1,1,1,905.5494373
4,2,6,17,1,2,0,0,21,1,1,1,969.4727245
4,2,6,18,1,2,1,1,127,2,2,1,2639.156564
4,2,6,19,2,2,1,0,31,1,1,1,1057.755891
4,2,6,20,1,1,0,0,119,2,2,1,844.1335685
4,2,6,21,1,1,1,1,44,1,1,1,743.0215655
4,2,6,22,1,1,1,1,56,1,1,1,2126.436572
4,2,6,23,2,2,0,0,69,2,2,1,606.0308195
4,2,6,24,1,2,1,0,102,2,2,1,2193.990982
4,2,6,25,1,2,1,1,14,1,1,1,1239.001393
4,2,6,26,2,1,0,0,32,1,1,1,1122.263954
4,2,6,27,2,1,0,1,48,1,1,1,1465.00852
4,2,6,28,1,2,0,0,94,2,2,1,938.7966893
4,2,6,29,1,2,1,1,74,2,2,1,2144.988771
4,2,6,30,2,2,1,0,104,2,2,1,687.9519867
4,2,6,31,2,1,0,1,39,1,1,1,776.8119145
4,2,6,32,1,1,1,0,101,2,2,1,974.3865705
4,2,6,33,2,1,1,0,40,1,2,0,1163.940118
4,2,6,34,2,2,0,1,41,1,1,1,1834.269327
4,2,6,35,1,1,0,0,71,2,2,1,1221.106425
4,2,6,36,2,1,1,0,7,1,1,1,1233.137286
4,2,6,37,2,1,1,1,38,1,1,1,1092.014639
4,2,6,38,2,2,0,1,73,2,2,1,1012.918925
4,2,6,39,1,1,0,0,28,1,2,0,2289.02632
4,2,6,40,2,2,0,0,90,2,2,1,928.1508233
4,2,6,41,1,2,1,0,42,1,1,1,1303.937136
4,2,6,42,1,2,1,1,111,2,2,1,1216.339734
4,2,6,43,1,1,0,1,112,2,2,1,1307.224256
4,2,6,44,2,1,1,0,72,2,2,1,667.9519545
4,2,6,45,2,2,0,1,117,2,2,1,709.1552336
4,2,6,46,2,2,1,1,114,2,2,1,613.334103
4,2,6,47,1,1,0,0,36,1,1,1,1321.614738
4,2,6,48,1,1,1,1,106,2,2,1,833.5931799
4,2,7,1,2,2,99,99,0,1,1,1,1544.923048
4,2,7,2,2,1,0,1,64,2,2,1,1103.972082
4,2,7,3,2,2,0,1,83,2,2,1,728.4515472
4,2,7,4,1,2,1,0,51,1,1,1,1783.002393
4,2,7,5,1,1,0,1,81,2,2,1,707.8343583
4,2,7,6,1,1,1,1,128,2,2,1,924.1827489
4,2,7,7,2,2,0,0,121,2,2,1,795.6968979
4,2,7,8,2,1,0,1,17,1,2,0,816.7007305
4,2,7,9,2,1,1,1,9,1,1,1,667.6384076
4,2,7,10,1,2,0,0,73,2,2,1,661.0789173
4,2,7,11,2,1,0,0,6,1,1,1,671.4012977
4,2,7,12,2,2,0,1,29,1,1,1,679.9837775
4,2,7,13,1,2,1,0,22,1,1,1,1033.528098
4,2,7,14,1,2,1,1,10,1,1,1,796.9789798
4,2,7,15,1,1,0,1,79,2,2,1,649.7581871
4,2,7,16,2,1,1,0,56,1,1,1,915.9667157
4,2,7,17,1,2,0,0,8,1,1,1,755.6606056
4,2,7,18,1,2,1,1,109,2,2,1,1050.033904
4,2,7,19,2,2,1,0,14,1,1,1,723.8727282
4,2,7,20,1,1,0,0,92,2,2,1,1394.64116
4,2,7,21,1,1,1,1,28,1,1,1,1031.652905
4,2,7,22,1,1,1,1,38,1,1,1,801.7992107
4,2,7,23,2,2,0,0,77,2,2,1,885.8026802
4,2,7,24,1,2,1,0,87,2,2,1,1910.202635
4,2,7,25,1,2,1,1,60,1,1,1,1237.491685
4,2,7,26,2,1,0,0,34,1,1,1,1256.581852
4,2,7,27,2,1,0,1,55,1,1,1,1058.794317
4,2,7,28,1,2,0,0,111,2,2,1,1021.431514
4,2,7,29,1,2,1,1,69,2,2,1,1232.022557
4,2,7,30,2,2,1,0,122,2,2,1,1162.944653
4,2,7,31,2,1,0,1,35,1,1,1,1233.278992
4,2,7,32,1,1,1,0,97,2,2,1,1196.307963
4,2,7,33,2,1,1,0,47,1,1,1,2265.131631
4,2,7,34,2,2,0,1,26,1,1,1,1162.951065
4,2,7,35,1,1,0,0,107,2,2,1,1025.238647
4,2,7,36,2,1,1,0,33,1,1,1,1061.280896
4,2,7,37,2,1,1,1,21,1,1,1,719.5337182
4,2,7,38,2,2,0,1,84,2,2,1,774.6372805
4,2,7,39,1,1,0,0,46,1,1,1,1228.357451
4,2,7,40,2,2,0,0,91,2,2,1,751.3985401
4,2,7,41,1,2,1,0,59,1,1,1,1189.385553
4,2,7,42,1,2,1,1,123,2,1,0,1074.400838
4,2,7,43,1,1,0,1,115,2,2,1,1659.05785
4,2,7,44,2,1,1,0,93,2,2,1,885.8433962
4,2,7,45,2,2,0,1,65,2,2,1,1358.739655
4,2,7,46,2,2,1,1,99,2,2,1,796.6856305
4,2,7,47,1,1,0,0,48,1,1,1,1369.618918
4,2,7,48,1,1,1,1,80,2,2,1,727.4073502
4,2,8,1,2,2,99,99,0,1,1,1,1097.314809
4,2,8,2,2,1,0,1,64,2,2,1,617.9853776
4,2,8,3,2,2,0,1,124,2,2,1,517.4748204
4,2,8,4,1,2,1,0,1,1,1,1,732.9918933
4,2,8,5,1,1,0,1,65,2,2,1,1235.729663
4,2,8,6,1,1,1,1,118,2,2,1,806.9644086
4,2,8,7,2,2,0,0,90,2,2,1,586.9505908
4,2,8,8,2,1,0,1,27,1,1,1,919.7219107
4,2,8,9,2,1,1,1,46,1,1,1,1319.424073
4,2,8,10,1,2,0,0,123,2,2,1,1350.997789
4,2,8,11,2,1,0,0,58,1,1,1,1045.648407
4,2,8,12,2,2,0,1,19,1,1,1,664.4929941
4,2,8,13,1,2,1,0,54,1,1,1,754.4756657
4,2,8,14,1,2,1,1,50,1,1,1,664.6824689
4,2,8,15,1,1,0,1,82,2,2,1,1138.65306
4,2,8,16,2,1,1,0,21,1,1,1,721.7093147
4,2,8,17,1,2,0,0,62,1,1,1,945.1109194
4,2,8,18,1,2,1,1,101,2,2,1,823.7882499
4,2,8,19,2,2,1,0,61,1,1,1,691.4458931
4,2,8,20,1,1,0,0,70,2,2,1,844.1127297
4,2,8,21,1,1,1,1,15,1,1,1,759.0416605
4,2,8,22,1,1,1,1,60,1,1,1,837.631146
4,2,8,23,2,2,0,0,127,2,2,1,888.6258891
4,2,8,24,1,2,1,0,81,2,2,1,1321.688796
4,2,8,25,1,2,1,1,55,1,1,1,776.1572483
4,2,8,26,2,1,0,0,23,1,1,1,1341.826686
4,2,8,27,2,1,0,1,32,1,1,1,996.6029152
4,2,8,28,1,2,0,0,107,2,2,1,1257.981274
4,2,8,29,1,2,1,1,74,2,2,1,651.1941575
4,2,8,30,2,2,1,0,77,2,2,1,877.5353502
4,2,8,31,2,1,0,1,5,1,1,1,1975.685645
4,2,8,32,1,1,1,0,87,2,2,1,964.1202958
4,2,8,33,2,1,1,0,45,1,1,1,818.4380657
4,2,8,34,2,2,0,1,37,1,1,1,1086.514093
4,2,8,35,1,1,0,0,92,2,2,1,1686.102442
4,2,8,36,2,1,1,0,6,1,1,1,982.6599918
4,2,8,37,2,1,1,1,9,1,1,1,707.9058527
4,2,8,38,2,2,0,1,72,2,2,1,651.8558776
4,2,8,39,1,1,0,0,28,1,2,0,1685.705858
4,2,8,40,2,2,0,0,122,2,2,1,892.8238344
4,2,8,41,1,2,1,0,35,1,1,1,1445.776327
4,2,8,42,1,2,1,1,67,2,2,1,872.0764825
4,2,8,43,1,1,0,1,113,2,2,1,777.6320116
4,2,8,44,2,1,1,0,66,2,2,1,671.2134252
4,2,8,45,2,2,0,1,95,2,2,1,768.0264944
4,2,8,46,2,2,1,1,106,2,2,1,757.9839989
4,2,8,47,1,1,0,0,26,1,1,1,2332.000276
4,2,8,48,1,1,1,1,71,2,2,1,1547.424374
4,2,9,1,2,2,99,99,0,1,2,0,776.0020774
4,2,9,2,2,1,0,1,64,2,2,1,1020.69317
4,2,9,3,2,2,0,1,71,2,2,1,1768.822546
4,2,9,4,1,2,1,0,58,1,2,0,1213.969213
4,2,9,5,1,1,0,1,75,2,2,1,873.7404002
4,2,9,6,1,1,1,1,76,2,2,1,1730.899654
4,2,9,7,2,2,0,0,101,2,2,1,850.5471852
4,2,9,8,2,1,0,1,56,1,2,0,812.8121649
4,2,9,9,2,1,1,1,7,1,1,1,944.7800596
4,2,9,10,1,2,0,0,116,2,2,1,1015.904038
4,2,9,11,2,1,0,0,55,1,1,1,787.7113759
4,2,9,12,2,2,0,1,32,1,2,0,1367.961733
4,2,9,13,1,2,1,0,21,1,1,1,1148.218182
4,2,9,14,1,2,1,1,5,1,1,1,1826.711487
4,2,9,15,1,1,0,1,102,2,2,1,1286.778909
4,2,9,16,2,1,1,0,41,1,1,1,782.5737502
4,2,9,17,1,2,0,0,46,1,2,0,1162.780185
4,2,9,18,1,2,1,1,104,2,2,1,1200.687048
4,2,9,19,2,2,1,0,14,1,1,1,740.9193865
4,2,9,20,1,1,0,0,115,2,2,1,1267.260098
4,2,9,21,1,1,1,1,11,1,1,1,965.0157336
4,2,9,22,1,1,1,1,52,1,1,1,1482.908938
4,2,9,23,2,2,0,0,113,2,2,1,587.2333604
4,2,9,24,1,2,1,0,67,2,2,1,1311.526716
4,2,9,25,1,2,1,1,27,1,1,1,814.6495274
4,2,9,26,2,1,0,0,42,1,1,1,1170.091483
4,2,9,27,2,1,0,1,43,1,1,1,694.651579
4,2,9,28,1,2,0,0,94,2,2,1,734.8892083
4,2,9,29,1,2,1,1,68,2,2,1,1173.179829
4,2,9,30,2,2,1,0,105,2,2,1,778.0936761
4,2,9,31,2,1,0,1,54,1,1,1,1295.374213
4,2,9,32,1,1,1,0,80,2,2,1,983.3512069
4,2,9,33,2,1,1,0,22,1,1,1,1171.665312
4,2,9,34,2,2,0,1,1,1,1,1,1288.919239
4,2,9,35,1,1,0,0,66,2,2,1,3409.268245
4,2,9,36,2,1,1,0,64,1,1,1,860.6900289
4,2,9,37,2,1,1,1,30,1,1,1,1022.299381
4,2,9,38,2,2,0,1,100,2,2,1,1177.228375
4,2,9,39,1,1,0,0,33,1,2,0,2198.702208
4,2,9,40,2,2,0,0,93,2,2,1,1345.915948
4,2,9,41,1,2,1,0,4,1,1,1,1199.933315
4,2,9,42,1,2,1,1,70,2,2,1,932.2003303
4,2,9,43,1,1,0,1,107,2,2,1,1105.98289
4,2,9,44,2,1,1,0,118,2,2,1,1489.636423
4,2,9,45,2,2,0,1,97,2,2,1,1450.439143
4,2,9,46,2,2,1,1,128,2,2,1,683.8354738
4,2,9,47,1,1,0,0,63,1,1,1,1500.240611
4,2,9,48,1,1,1,1,81,2,2,1,1245.16975
4,2,10,1,2,2,99,99,0,1,1,1,1028.53314
4,2,10,2,2,1,0,1,64,2,2,1,727.1021386
4,2,10,3,2,2,0,1,122,2,2,1,822.4404445
4,2,10,4,1,2,1,0,21,1,1,1,921.2085363
4,2,10,5,1,1,0,1,71,2,2,1,1144.216124
4,2,10,6,1,1,1,1,100,2,2,1,1118.156418
4,2,10,7,2,2,0,0,96,2,2,1,869.5392488
4,2,10,8,2,1,0,1,61,1,1,1,694.3168719
4,2,10,9,2,1,1,1,18,1,1,1,886.0088261
4,2,10,10,1,2,0,0,126,2,2,1,1622.397163
4,2,10,11,2,1,0,0,14,1,1,1,936.9968376
4,2,10,12,2,2,0,1,46,1,2,0,735.5615078
4,2,10,13,1,2,1,0,8,1,1,1,805.3537104
4,2,10,14,1,2,1,1,45,1,1,1,872.9892327
4,2,10,15,1,1,0,1,128,2,2,1,1000.657552
4,2,10,16,2,1,1,0,10,1,1,1,1684.807215
4,2,10,17,1,2,0,0,27,1,1,1,1381.422153
4,2,10,18,1,2,1,1,104,2,2,1,1129.501835
4,2,10,19,2,2,1,0,51,1,1,1,1536.152696
4,2,10,20,1,1,0,0,76,2,2,1,1414.749234
4,2,10,21,1,1,1,1,63,1,1,1,1682.026004
4,2,10,22,1,1,1,1,53,1,1,1,1194.307094
4,2,10,23,2,2,0,0,116,2,1,0,2934.359255
4,2,10,24,1,2,1,0,86,2,99,99,99000
4,2,10,25,1,2,1,1,30,1,1,1,2647.724938
4,2,10,26,2,1,0,0,36,1,1,1,969.7317695
4,2,10,27,2,1,0,1,26,1,1,1,694.7772545
4,2,10,28,1,2,0,0,66,2,2,1,1342.536496
4,2,10,29,1,2,1,1,105,2,2,1,949.329704
4,2,10,30,2,2,1,0,79,2,2,1,770.3723297
4,2,10,31,2,1,0,1,47,1,1,1,1391.453427
4,2,10,32,1,1,1,0,115,2,2,1,939.6427544
4,2,10,33,2,1,1,0,55,1,1,1,777.9202317
4,2,10,34,2,2,0,1,11,1,1,1,1062.835809
4,2,10,35,1,1,0,0,90,2,2,1,1176.95362
4,2,10,36,2,1,1,0,19,1,1,1,989.3910028
4,2,10,37,2,1,1,1,33,1,1,1,962.2143246
4,2,10,38,2,2,0,1,127,2,2,1,1799.263901
4,2,10,39,1,1,0,0,64,1,1,1,1483.452036
4,2,10,40,2,2,0,0,81,2,2,1,739.3622287
4,2,10,41,1,2,1,0,59,1,1,1,1153.935774
4,2,10,42,1,2,1,1,70,2,2,1,1167.685376
4,2,10,43,1,1,0,1,93,2,1,0,1884.529896
4,2,10,44,2,1,1,0,125,2,2,1,692.2166171
4,2,10,45,2,2,0,1,102,2,2,1,1180.550439
4,2,10,46,2,2,1,1,83,2,2,1,825.49641
4,2,10,47,1,1,0,0,58,1,1,1,1324.538936
4,2,10,48,1,1,1,1,97,2,2,1,667.7499763
5,1,1,1,1,1,99,99,64,2,2,1,1242.183996
5,1,1,2,1,2,0,1,88,2,2,1,2002.575065
5,1,1,3,1,2,1,1,83,2,2,1,1246.546089
5,1,1,4,2,1,0,0,81,2,1,0,1745.526739
5,1,1,5,2,1,1,1,67,2,2,1,1984.27646
5,1,1,6,1,1,1,0,0,1,1,1,1845.352172
5,1,1,7,1,2,0,1,76,2,2,1,2784.647395
5,1,1,8,1,2,1,1,13,1,1,1,1861.935242
5,1,1,9,2,1,0,0,97,2,2,1,4160.383695
5,1,1,10,2,1,1,1,89,2,2,1,2374.90883
5,1,1,11,1,1,1,0,63,1,1,1,2548.741081
5,1,1,12,1,2,0,1,74,2,2,1,3043.373104
5,1,1,13,2,2,1,0,85,2,2,1,2021.952169
5,1,1,14,2,2,1,1,32,1,1,1,2297.915294
5,1,1,15,2,1,0,1,101,2,2,1,2594.399747
5,1,1,16,1,1,1,0,44,1,99,99,99000
5,1,1,17,1,1,1,1,106,2,2,1,2331.891913
5,1,1,18,2,2,0,0,87,2,2,1,1674.975675
5,1,1,19,2,2,1,1,55,1,1,1,1100.876041
5,1,1,20,1,1,0,0,41,1,1,1,2749.105284
5,1,1,21,2,1,1,0,20,1,1,1,1075.750566
5,1,1,22,2,1,1,1,30,1,1,1,1228.91209
5,1,1,23,2,2,0,1,48,1,1,1,1144.648934
5,1,1,24,1,2,0,0,12,1,1,1,1543.949383
5,1,1,25,1,2,1,1,108,2,2,1,1839.001393
5,1,1,26,1,1,0,1,122,2,2,1,1633.652171
5,1,1,27,2,1,1,0,27,1,1,1,1300.650659
5,1,1,28,2,2,0,1,24,1,1,1,796.9526905
5,1,1,29,1,2,0,0,38,1,1,1,1689.953818
5,1,1,30,2,2,1,0,8,1,1,1,1619.495407
5,1,1,31,1,1,0,0,18,1,1,1,646.8304615
5,1,1,32,1,1,1,1,84,2,1,0,1425.659916
5,1,1,33,2,2,0,0,68,2,2,1,2212.960924
5,1,1,34,1,2,1,0,77,2,2,1,1161.619931
5,1,1,35,2,2,1,0,90,2,2,1,1927.60452
5,1,1,36,2,1,0,1,7,1,1,1,999.7579465
5,1,1,37,2,1,1,1,94,2,2,1,948.0303098
5,1,1,38,1,2,0,0,50,1,1,1,1537.83617
5,1,1,39,1,1,0,1,51,1,1,1,1576.881165
5,1,1,40,2,2,0,0,120,2,2,1,1286.660287
5,1,1,41,1,2,1,0,40,1,1,1,1711.493053
5,1,1,42,2,2,1,0,69,2,2,1,927.8119486
5,1,1,43,2,1,0,1,115,2,2,1,1703.876222
5,1,1,44,2,1,0,1,114,2,2,1,744.0708913
5,1,1,45,1,2,0,0,39,1,1,1,1182.694616
5,1,1,46,2,2,1,0,36,1,1,1,1291.798874
5,1,1,47,1,1,0,0,11,1,1,1,1852.820885
5,1,1,48,1,1,1,1,57,1,1,1,710.5982569
5,1,2,1,1,1,99,99,64,2,2,1,918.9172033
5,1,2,2,1,2,0,1,90,2,2,1,3422.634407
5,1,2,3,1,2,1,1,72,2,2,1,1018.198256
5,1,2,4,2,1,0,0,89,2,99,99,99000
5,1,2,5,2,1,1,1,109,2,1,0,1586.490208
5,1,2,6,1,1,1,0,0,1,1,1,1287.177736
5,1,2,7,1,2,0,1,99,2,1,0,1344.208108
5,1,2,8,1,2,1,1,59,1,1,1,1710.831654
5,1,2,9,2,1,0,0,82,2,2,1,1647.306233
5,1,2,10,2,1,1,1,105,2,2,1,1122.526846
5,1,2,11,1,1,1,0,19,1,1,1,1242.066656
5,1,2,12,1,2,0,1,128,2,2,1,916.685502
5,1,2,13,2,2,1,0,71,2,2,1,3324.591194
5,1,2,14,2,2,1,1,6,1,1,1,668.4819078
5,1,2,15,2,1,0,1,79,2,2,1,765.880073
5,1,2,16,1,1,1,0,10,1,1,1,1595.438173
5,1,2,17,1,1,1,1,78,2,2,1,736.3322321
5,1,2,18,2,2,0,0,92,2,2,1,3287.947499
5,1,2,19,2,2,1,1,30,1,1,1,1088.559525
5,1,2,20,1,1,0,0,34,1,1,1,1721.947841
5,1,2,21,2,1,1,0,60,1,1,1,1169.382315
5,1,2,22,2,1,1,1,5,1,1,1,878.7888987
5,1,2,23,2,2,0,1,3,1,1,1,704.7258141
5,1,2,24,1,2,0,0,45,1,1,1,1688.617554
5,1,2,25,1,2,1,1,95,2,2,1,1697.84925
5,1,2,26,1,1,0,1,121,2,2,1,1114.071324
5,1,2,27,2,1,1,0,64,1,1,1,1938.404274
5,1,2,28,2,2,0,1,47,1,1,1,1601.738618
5,1,2,29,1,2,0,0,13,1,1,1,2022.284633
5,1,2,30,2,2,1,0,11,1,1,1,769.4252753
5,1,2,31,1,1,0,0,50,1,1,1,2231.150523
5,1,2,32,1,1,1,1,110,2,2,1,682.0718497
5,1,2,33,2,2,0,0,77,2,2,1,1299.154416
5,1,2,34,1,2,1,0,87,2,2,1,1107.270101
5,1,2,35,2,2,1,0,108,2,2,1,643.6132337
5,1,2,36,2,1,0,1,53,1,1,1,751.0247198
5,1,2,37,2,1,1,1,94,2,2,1,836.6937093
5,1,2,38,1,2,0,0,48,1,1,1,1175.571831
5,1,2,39,1,1,0,1,36,1,1,1,1173.259659
5,1,2,40,2,2,0,0,118,2,2,1,1259.291569
5,1,2,41,1,2,1,0,63,1,1,1,1757.366522
5,1,2,42,2,2,1,0,85,2,2,1,1899.761954
5,1,2,43,2,1,0,1,124,2,2,1,660.0260646
5,1,2,44,2,1,0,1,106,2,2,1,622.1208056
5,1,2,45,1,2,0,0,15,1,1,1,1754.148012
5,1,2,46,2,2,1,0,20,1,1,1,2960.298736
5,1,2,47,1,1,0,0,24,1,1,1,1295.194997
5,1,2,48,1,1,1,1,33,1,1,1,1383.999461
5,1,3,1,1,1,99,99,64,2,2,1,1409.271772
5,1,3,2,1,2,0,1,73,2,99,99,99000
5,1,3,3,1,2,1,1,76,2,2,1,1001.472198
5,1,3,4,2,1,0,0,124,2,2,1,1469.872353
5,1,3,5,2,1,1,1,75,2,2,1,1583.81704
5,1,3,6,1,1,1,0,0,1,1,1,1716.543796
5,1,3,7,1,2,0,1,96,2,2,1,2107.575313
5,1,3,8,1,2,1,1,16,1,1,1,787.5427403
5,1,3,9,2,1,0,0,114,2,2,1,1248.866276
5,1,3,10,2,1,1,1,89,2,2,1,2787.619043
5,1,3,11,1,1,1,0,48,1,1,1,1728.365947
5,1,3,12,1,2,0,1,90,2,1,0,511.9204139
5,1,3,13,2,2,1,0,77,2,99,99,99000
5,1,3,14,2,2,1,1,20,1,1,1,1220.487345
5,1,3,15,2,1,0,1,81,2,2,1,608.5475348
5,1,3,16,1,1,1,0,56,1,1,1,1411.572723
5,1,3,17,1,1,1,1,126,2,2,1,1392.505318
5,1,3,18,2,2,0,0,123,2,2,1,1500.851035
5,1,3,19,2,2,1,1,2,1,1,1,1645.652254
5,1,3,20,1,1,0,0,28,1,1,1,1184.236065
5,1,3,21,2,1,1,0,9,1,1,1,597.1825616
5,1,3,22,2,1,1,1,59,1,1,1,554.0582435
5,1,3,23,2,2,0,1,29,1,1,1,800.4536503
5,1,3,24,1,2,0,0,3,1,1,1,1060.50408
5,1,3,25,1,2,1,1,128,2,2,1,646.8785517
5,1,3,26,1,1,0,1,97,2,2,1,770.0696825
5,1,3,27,2,1,1,0,46,1,1,1,1279.593286
5,1,3,28,2,2,0,1,19,1,1,1,768.8392173
5,1,3,29,1,2,0,0,38,1,1,1,1126.492036
5,1,3,30,2,2,1,0,52,1,1,1,1286.161112
5,1,3,31,1,1,0,0,6,1,1,1,1327.421777
5,1,3,32,1,1,1,1,103,2,2,1,638.6586707
5,1,3,33,2,2,0,0,86,2,2,1,1217.9655
5,1,3,34,1,2,1,0,107,2,2,1,1117.515537
5,1,3,35,2,2,1,0,84,2,2,1,1084.891533
5,1,3,36,2,1,0,1,17,1,1,1,1558.268372
5,1,3,37,2,1,1,1,101,2,2,1,1612.485152
5,1,3,38,1,2,0,0,8,1,1,1,1024.516334
5,1,3,39,1,1,0,1,50,1,1,1,820.0243977
5,1,3,40,2,2,0,0,120,2,1,0,496.0336885
5,1,3,41,1,2,1,0,53,1,1,1,1080.330988
5,1,3,42,2,2,1,0,83,2,2,1,1113.368888
5,1,3,43,2,1,0,1,105,2,2,1,633.4553221
5,1,3,44,2,1,0,1,102,2,2,1,555.6846508
5,1,3,45,1,2,0,0,63,1,1,1,1329.560825
5,1,3,46,2,2,1,0,33,1,2,0,640.8740217
5,1,3,47,1,1,0,0,41,1,1,1,1315.306278
5,1,3,48,1,1,1,1,23,1,1,1,4074.848396
5,1,4,1,1,1,99,99,64,2,2,1,1227.212586
5,1,4,2,1,2,0,1,87,2,2,1,2254.802518
5,1,4,3,1,2,1,1,93,2,1,0,760.3442608
5,1,4,4,2,1,0,0,113,2,2,1,1054.043656
5,1,4,5,2,1,1,1,96,2,1,0,1063.713934
5,1,4,6,1,1,1,0,0,1,1,1,928.6092822
5,1,4,7,1,2,0,1,65,2,2,1,1367.633759
5,1,4,8,1,2,1,1,34,1,1,1,1604.703853
5,1,4,9,2,1,0,0,67,2,2,1,2536.824995
5,1,4,10,2,1,1,1,91,2,2,1,2239.957424
5,1,4,11,1,1,1,0,27,1,1,1,3506.05759
5,1,4,12,1,2,0,1,109,2,2,1,657.6981833
5,1,4,13,2,2,1,0,102,2,2,1,1636.299691
5,1,4,14,2,2,1,1,16,1,1,1,1014.792515
5,1,4,15,2,1,0,1,80,2,2,1,617.167525
5,1,4,16,1,1,1,0,19,1,1,1,4636.899215
5,1,4,17,1,1,1,1,115,2,2,1,687.2998849
5,1,4,18,2,2,0,0,75,2,2,1,1391.341859
5,1,4,19,2,2,1,1,36,1,1,1,835.3911084
5,1,4,20,1,1,0,0,32,1,1,1,2029.636006
5,1,4,21,2,1,1,0,44,1,1,1,1769.500616
5,1,4,22,2,1,1,1,21,1,1,1,1198.487727
5,1,4,23,2,2,0,1,53,1,1,1,955.2604961
5,1,4,24,1,2,0,0,62,1,1,1,1696.907966
5,1,4,25,1,2,1,1,92,2,2,1,681.2055865
5,1,4,26,1,1,0,1,68,2,1,0,2050.354504
5,1,4,27,2,1,1,0,5,1,1,1,3580.01183
5,1,4,28,2,2,0,1,1,1,1,1,873.0078274
5,1,4,29,1,2,0,0,41,1,1,1,1393.95283
5,1,4,30,2,2,1,0,49,1,1,1,166.8566223
5,1,4,31,1,1,0,0,14,1,1,1,315.3505209
5,1,4,32,1,1,1,1,103,2,2,1,18.71570572
5,1,4,33,2,2,0,0,128,2,2,1,301.3492478
5,1,4,34,1,2,1,0,108,2,2,1,597.3124048
5,1,4,35,2,2,1,0,98,2,2,1,465.0139702
5,1,4,36,2,1,0,1,64,1,1,1,641.88712
5,1,4,37,2,1,1,1,100,2,1,0,180.5485156
5,1,4,38,1,2,0,0,38,1,1,1,1169.806149
5,1,4,39,1,1,0,1,23,1,1,1,502.3690783
5,1,4,40,2,2,0,0,107,2,2,1,1246.006839
5,1,4,41,1,2,1,0,2,1,1,1,912.7206332
5,1,4,42,2,2,1,0,105,2,2,1,1240.226088
5,1,4,43,2,1,0,1,78,2,2,1,3298.819709
5,1,4,44,2,1,0,1,73,2,2,1,2226.866337
5,1,4,45,1,2,0,0,3,1,1,1,1166.303587
5,1,4,46,2,2,1,0,26,1,2,0,770.7692333
5,1,4,47,1,1,0,0,58,1,1,1,1791.352759
5,1,4,48,1,1,1,1,18,1,1,1,611.727573
5,1,5,1,1,1,99,99,64,2,2,1,866.1892926
5,1,5,2,1,2,0,1,124,2,2,1,1426.567216
5,1,5,3,1,2,1,1,116,2,2,1,589.4785267
5,1,5,4,2,1,0,0,90,2,2,1,1162.428807
5,1,5,5,2,1,1,1,72,2,2,1,1544.137897
5,1,5,6,1,1,1,0,0,1,1,1,1455.705009
5,1,5,7,1,2,0,1,117,2,2,1,696.9169434
5,1,5,8,1,2,1,1,61,1,2,0,633.4338416
5,1,5,9,2,1,0,0,115,2,2,1,1459.527531
5,1,5,10,2,1,1,1,128,2,2,1,669.1657486
5,1,5,11,1,1,1,0,22,1,1,1,1158.497601
5,1,5,12,1,2,0,1,76,2,2,1,2395.85303
5,1,5,13,2,2,1,0,65,2,2,1,1264.589174
5,1,5,14,2,2,1,1,14,1,2,0,481.7986977
5,1,5,15,2,1,0,1,125,2,2,1,977.7711518
5,1,5,16,1,1,1,0,19,1,1,1,1423.378202
5,1,5,17,1,1,1,1,100,2,2,1,651.1803716
5,1,5,18,2,2,0,0,108,2,2,1,1197.216224
5,1,5,19,2,2,1,1,4,1,1,1,1449.892839
5,1,5,20,1,1,0,0,24,1,1,1,779.8335762
5,1,5,21,2,1,1,0,50,1,1,1,1697.564878
5,1,5,22,2,1,1,1,51,1,1,1,1233.092723
5,1,5,23,2,2,0,1,21,1,1,1,644.017511
5,1,5,24,1,2,0,0,46,1,1,1,2287.027695
5,1,5,25,1,2,1,1,106,2,1,0,1536.109094
5,1,5,26,1,1,0,1,123,2,2,1,1734.058532
5,1,5,27,2,1,1,0,60,1,1,1,1172.546964
5,1,5,28,2,2,0,1,53,1,1,1,1530.517498
5,1,5,29,1,2,0,0,59,1,1,1,746.2429604
5,1,5,30,2,2,1,0,38,1,1,1,1040.051361
5,1,5,31,1,1,0,0,18,1,1,1,3322.757358
5,1,5,32,1,1,1,1,126,2,2,1,841.7117512
5,1,5,33,2,2,0,0,92,2,2,1,1236.21377
5,1,5,34,1,2,1,0,96,2,2,1,1526.938311
5,1,5,35,2,2,1,0,95,2,2,1,1094.450242
5,1,5,36,2,1,0,1,47,1,1,1,615.157038
5,1,5,37,2,1,1,1,122,2,2,1,794.1881511
5,1,5,38,1,2,0,0,34,1,1,1,1151.230866
5,1,5,39,1,1,0,1,48,1,1,1,757.4617402
5,1,5,40,2,2,0,0,85,2,2,1,1155.073907
5,1,5,41,1,2,1,0,6,1,1,1,1376.591342
5,1,5,42,2,2,1,0,121,2,1,0,1630.463156
5,1,5,43,2,1,0,1,69,2,2,1,1385.094954
5,1,5,44,2,1,0,1,102,2,2,1,669.680634
5,1,5,45,1,2,0,0,15,1,1,1,310.2061623
5,1,5,46,2,2,1,0,3,1,1,1,558.0346533
5,1,5,47,1,1,0,0,44,1,1,1,1179.621338
5,1,5,48,1,1,1,1,41,1,1,1,497.4318282
5,1,6,1,1,1,99,99,64,2,2,1,1485.047665
5,1,6,2,1,2,0,1,104,2,2,1,3245.339669
5,1,6,3,1,2,1,1,120,2,2,1,1447.72077
5,1,6,4,2,1,0,0,121,2,2,1,1570.410481
5,1,6,5,2,1,1,1,113,2,2,1,454.9842989
5,1,6,6,1,1,1,0,0,1,1,1,1984.666632
5,1,6,7,1,2,0,1,70,2,2,1,1277.712963
5,1,6,8,1,2,1,1,8,1,1,1,1327.669602
5,1,6,9,2,1,0,0,82,2,2,1,1134.26051
5,1,6,10,2,1,1,1,98,2,2,1,501.1600936
5,1,6,11,1,1,1,0,2,1,1,1,1228.771346
5,1,6,12,1,2,0,1,80,2,2,1,655.910193
5,1,6,13,2,2,1,0,116,2,2,1,1969.752288
5,1,6,14,2,2,1,1,36,1,1,1,1534.455436
5,1,6,15,2,1,0,1,103,2,2,1,1508.69998
5,1,6,16,1,1,1,0,46,1,2,0,900.1982915
5,1,6,17,1,1,1,1,111,2,2,1,2059.726624
5,1,6,18,2,2,0,0,125,2,2,1,669.490838
5,1,6,19,2,2,1,1,63,1,1,1,1062.343366
5,1,6,20,1,1,0,0,62,1,1,1,711.82231
5,1,6,21,2,1,1,0,20,1,1,1,1135.465969
5,1,6,22,2,1,1,1,3,1,1,1,2166.975245
5,1,6,23,2,2,0,1,25,1,1,1,1052.018422
5,1,6,24,1,2,0,0,55,1,1,1,1021.124058
5,1,6,25,1,2,1,1,79,2,1,0,1720.479811
5,1,6,26,1,1,0,1,65,2,2,1,1062.721996
5,1,6,27,2,1,1,0,56,1,1,1,1913.19897
5,1,6,28,2,2,0,1,4,1,1,1,1008.808824
5,1,6,29,1,2,0,0,44,1,1,1,1860.539988
5,1,6,30,2,2,1,0,16,1,1,1,990.631728
5,1,6,31,1,1,0,0,15,1,1,1,554.542671
5,1,6,32,1,1,1,1,127,2,1,0,471.897908
5,1,6,33,2,2,0,0,86,2,2,1,720.6244017
5,1,6,34,1,2,1,0,114,2,2,1,511.9595276
5,1,6,35,2,2,1,0,75,2,2,1,983.2303403
5,1,6,36,2,1,0,1,58,1,1,1,939.2513013
5,1,6,37,2,1,1,1,67,2,2,1,713.7532881
5,1,6,38,1,2,0,0,38,1,1,1,657.5497454
5,1,6,39,1,1,0,1,33,1,1,1,546.7007789
5,1,6,40,2,2,0,0,73,2,2,1,857.8732312
5,1,6,41,1,2,1,0,40,1,1,1,891.2368612
5,1,6,42,2,2,1,0,68,2,2,1,1107.426875
5,1,6,43,2,1,0,1,118,2,2,1,883.0451933
5,1,6,44,2,1,0,1,72,2,2,1,612.246946
5,1,6,45,1,2,0,0,31,1,1,1,863.5808849
5,1,6,46,2,2,1,0,34,1,1,1,889.3597447
5,1,6,47,1,1,0,0,26,1,1,1,1177.326479
5,1,6,48,1,1,1,1,19,1,1,1,534.7946314
5,1,7,1,1,1,99,99,64,2,1,0,1252.601915
5,1,7,2,1,2,0,1,75,2,1,0,677.4321166
5,1,7,3,1,2,1,1,84,2,2,1,670.0066845
5,1,7,4,2,1,0,0,119,2,2,1,991.0549205
5,1,7,5,2,1,1,1,67,2,2,1,955.2287566
5,1,7,6,1,1,1,0,0,1,1,1,657.5465393
5,1,7,7,1,2,0,1,116,2,2,1,627.6966925
5,1,7,8,1,2,1,1,61,1,1,1,1031.086403
5,1,7,9,2,1,0,0,89,2,2,1,1080.078675
5,1,7,10,2,1,1,1,110,2,2,1,1697.186569
5,1,7,11,1,1,1,0,52,1,1,1,897.7261395
5,1,7,12,1,2,0,1,78,2,2,1,521.5637619
5,1,7,13,2,2,1,0,125,2,2,1,953.313488
5,1,7,14,2,2,1,1,16,1,1,1,1039.917349
5,1,7,15,2,1,0,1,95,2,2,1,946.2468079
5,1,7,16,1,1,1,0,23,1,1,1,616.5865967
5,1,7,17,1,1,1,1,113,2,2,1,611.7577092
5,1,7,18,2,2,0,0,106,2,2,1,887.3325866
5,1,7,19,2,2,1,1,58,1,1,1,1191.984983
5,1,7,20,1,1,0,0,59,1,1,1,725.2041823
5,1,7,21,2,1,1,0,25,1,1,1,1332.422186
5,1,7,22,2,1,1,1,11,1,1,1,1066.443529
5,1,7,23,2,2,0,1,7,1,1,1,955.2249094
5,1,7,24,1,2,0,0,40,1,1,1,609.1922629
5,1,7,25,1,2,1,1,103,2,2,1,604.6708315
5,1,7,26,1,1,0,1,96,2,2,1,656.9345128
5,1,7,27,2,1,1,0,27,1,1,1,851.1810126
5,1,7,28,2,2,0,1,56,1,1,1,989.6667195
5,1,7,29,1,2,0,0,17,1,1,1,552.6485625
5,1,7,30,2,2,1,0,32,1,1,1,814.7081975
5,1,7,31,1,1,0,0,49,1,1,1,577.3566156
5,1,7,32,1,1,1,1,124,2,2,1,677.8697367
5,1,7,33,2,2,0,0,114,2,2,1,1038.313705
5,1,7,34,1,2,1,0,115,2,2,1,512.9412068
5,1,7,35,2,2,1,0,87,2,2,1,784.7958333
5,1,7,36,2,1,0,1,64,1,1,1,901.3790642
5,1,7,37,2,1,1,1,79,2,2,1,781.3016069
5,1,7,38,1,2,0,0,18,1,1,1,513.670573
5,1,7,39,1,1,0,1,21,1,1,1,545.0394261
5,1,7,40,2,2,0,0,69,2,2,1,799.1924067
5,1,7,41,1,2,1,0,10,1,1,1,602.8010882
5,1,7,42,2,2,1,0,117,2,2,1,1085.886677
5,1,7,43,2,1,0,1,104,2,2,1,942.6900642
5,1,7,44,2,1,0,1,122,2,2,1,869.2151215
5,1,7,45,1,2,0,0,57,1,1,1,1126.422786
5,1,7,46,2,2,1,0,48,1,1,1,1350.735217
5,1,7,47,1,1,0,0,63,1,1,1,1003.84817
5,1,7,48,1,1,1,1,29,1,1,1,575.6555083
5,1,8,1,1,1,99,99,64,2,2,1,1797.98214
5,1,8,2,1,2,0,1,70,2,2,1,2145.757251
5,1,8,3,1,2,1,1,123,2,2,1,2232.852272
5,1,8,4,2,1,0,0,69,2,2,1,1714.564408
5,1,8,5,2,1,1,1,66,2,2,1,1033.976619
5,1,8,6,1,1,1,0,0,1,1,1,883.5931001
5,1,8,7,1,2,0,1,97,2,2,1,692.6984801
5,1,8,8,1,2,1,1,22,1,1,1,732.94733
5,1,8,9,2,1,0,0,115,2,2,1,738.8547179
5,1,8,10,2,1,1,1,128,2,2,1,817.7138288
5,1,8,11,1,1,1,0,20,1,1,1,532.3801874
5,1,8,12,1,2,0,1,109,2,2,1,667.180269
5,1,8,13,2,2,1,0,111,2,2,1,652.4377675
5,1,8,14,2,2,1,1,54,1,2,0,461.5572533
5,1,8,15,2,1,0,1,104,2,2,1,950.9336692
5,1,8,16,1,1,1,0,25,1,1,1,772.4616844
5,1,8,17,1,1,1,1,124,2,2,1,561.7289352
5,1,8,18,2,2,0,0,121,2,2,1,775.4958491
5,1,8,19,2,2,1,1,39,1,2,0,909.3976077
5,1,8,20,1,1,0,0,5,1,1,1,644.4217889
5,1,8,21,2,1,1,0,32,1,1,1,903.4264199
5,1,8,22,2,1,1,1,64,1,1,1,1096.001629
5,1,8,23,2,2,0,1,31,1,1,1,1079.528525
5,1,8,24,1,2,0,0,46,1,1,1,624.5272346
5,1,8,25,1,2,1,1,71,2,1,0,938.8293908
5,1,8,26,1,1,0,1,120,2,2,1,552.4273482
5,1,8,27,2,1,1,0,55,1,1,1,1157.839408
5,1,8,28,2,2,0,1,47,1,1,1,1195.234912
5,1,8,29,1,2,0,0,23,1,2,0,3775.850113
5,1,8,30,2,2,1,0,45,1,1,1,1340.208936
5,1,8,31,1,1,0,0,11,1,1,1,969.6798325
5,1,8,32,1,1,1,1,86,2,2,1,1990.188978
5,1,8,33,2,2,0,0,93,2,1,0,857.8132791
5,1,8,34,1,2,1,0,79,2,2,1,595.7443463
5,1,8,35,2,2,1,0,105,2,2,1,1239.354695
5,1,8,36,2,1,0,1,56,1,1,1,928.4717445
5,1,8,37,2,1,1,1,75,2,2,1,846.6515662
5,1,8,38,1,2,0,0,53,1,1,1,577.5682116
5,1,8,39,1,1,0,1,26,1,1,1,662.52675
5,1,8,40,2,2,0,0,122,2,2,1,832.3938129
5,1,8,41,1,2,1,0,29,1,1,1,578.9772514
5,1,8,42,2,2,1,0,112,2,2,1,1022.792143
5,1,8,43,2,1,0,1,84,2,2,1,1320.85844
5,1,8,44,2,1,0,1,113,2,2,1,1119.153165
5,1,8,45,1,2,0,0,35,1,1,1,542.2614207
5,1,8,46,2,2,1,0,40,1,1,1,2451.964882
5,1,8,47,1,1,0,0,61,1,1,1,1358.378017
5,1,8,48,1,1,1,1,58,1,1,1,788.3522566
5,1,9,1,1,1,99,99,64,2,2,1,1010.292243
5,1,9,2,1,2,0,1,86,2,2,1,533.1560411
5,1,9,3,1,2,1,1,65,2,2,1,594.9723399
5,1,9,4,2,1,0,0,126,2,2,1,1014.813675
5,1,9,5,2,1,1,1,104,2,2,1,513.9039704
5,1,9,6,1,1,1,0,0,1,1,1,1185.28475
5,1,9,7,1,2,0,1,66,2,2,1,604.5570178
5,1,9,8,1,2,1,1,11,1,1,1,575.8635779
5,1,9,9,2,1,0,0,67,2,2,1,1092.892764
5,1,9,10,2,1,1,1,118,2,2,1,1324.538936
5,1,9,11,1,1,1,0,42,1,1,1,859.1335127
5,1,9,12,1,2,0,1,70,2,2,1,692.5070817
5,1,9,13,2,2,1,0,78,2,2,1,772.9528444
5,1,9,14,2,2,1,1,30,1,1,1,1161.54972
5,1,9,15,2,1,0,1,68,2,2,1,1335.166528
5,1,9,16,1,1,1,0,57,1,1,1,693.5378127
5,1,9,17,1,1,1,1,75,2,2,1,533.6641935
5,1,9,18,2,2,0,0,92,2,2,1,4171.553422
5,1,9,19,2,2,1,1,60,1,1,1,1127.908449
5,1,9,20,1,1,0,0,23,1,1,1,526.4253505
5,1,9,21,2,1,1,0,6,1,1,1,933.6754144
5,1,9,22,2,1,1,1,54,1,1,1,738.7033948
5,1,9,23,2,2,0,1,2,1,1,1,200.1785748
5,1,9,24,1,2,0,0,39,1,1,1,1227.813391
5,1,9,25,1,2,1,1,108,2,2,1,614.0673165
5,1,9,26,1,1,0,1,97,2,2,1,464.4532395
5,1,9,27,2,1,1,0,22,1,1,1,841.1510205
5,1,9,28,2,2,0,1,35,1,1,1,938.7845066
5,1,9,29,1,2,0,0,63,1,1,1,656.4420694
5,1,9,30,2,2,1,0,13,1,1,1,745.4725578
5,1,9,31,1,1,0,0,3,1,1,1,518.7735744
5,1,9,32,1,1,1,1,110,2,2,1,686.4852388
5,1,9,33,2,2,0,0,124,2,1,0,1470.502974
5,1,9,34,1,2,1,0,111,2,2,1,534.3268747
5,1,9,35,2,2,1,0,107,2,2,1,788.1877888
5,1,9,36,2,1,0,1,4,1,1,1,824.7686466
5,1,9,37,2,1,1,1,120,2,2,1,835.4202835
5,1,9,38,1,2,0,0,25,1,1,1,589.5929816
5,1,9,39,1,1,0,1,45,1,1,1,738.1625413
5,1,9,40,2,2,0,0,84,2,2,1,976.4380944
5,1,9,41,1,2,1,0,8,1,1,1,973.426051
5,1,9,42,2,2,1,0,105,2,2,1,1066.316891
5,1,9,43,2,1,0,1,121,2,2,1,1234.476756
5,1,9,44,2,1,0,1,125,2,2,1,716.7018526
5,1,9,45,1,2,0,0,44,1,1,1,987.4670785
5,1,9,46,2,2,1,0,61,1,1,1,495.685196
5,1,9,47,1,1,0,0,36,1,1,1,1183.50253
5,1,9,48,1,1,1,1,47,1,1,1,1043.930949
5,1,10,1,1,1,99,99,64,2,2,1,1601.850507
5,1,10,2,1,2,0,1,89,2,2,1,830.1201132
5,1,10,3,1,2,1,1,117,2,2,1,2400.174727
5,1,10,4,2,1,0,0,91,2,2,1,1563.192798
5,1,10,5,2,1,1,1,110,2,2,1,1985.394074
5,1,10,6,1,1,1,0,0,1,1,1,740.5513371
5,1,10,7,1,2,0,1,108,2,2,1,594.4494405
5,1,10,8,1,2,1,1,25,1,1,1,950.2549577
5,1,10,9,2,1,0,0,66,2,2,1,1227.31646
5,1,10,10,2,1,1,1,123,2,2,1,941.9917958
5,1,10,11,1,1,1,0,53,1,1,1,883.3520082
5,1,10,12,1,2,0,1,84,2,2,1,402.7767223
5,1,10,13,2,2,1,0,107,2,2,1,973.5167813
5,1,10,14,2,2,1,1,51,1,1,1,1051.110801
5,1,10,15,2,1,0,1,82,2,1,0,867.4191167
5,1,10,16,1,1,1,0,7,1,1,1,1404.08317
5,1,10,17,1,1,1,1,120,2,2,1,615.1140775
5,1,10,18,2,2,0,0,93,2,1,0,1649.796339
5,1,10,19,2,2,1,1,60,1,1,1,1042.843151
5,1,10,20,1,1,0,0,28,1,1,1,1852.86609
5,1,10,21,2,1,1,0,44,1,1,1,1614.174077
5,1,10,22,2,1,1,1,15,1,1,1,618.1716463
5,1,10,23,2,2,0,1,39,1,1,1,579.9929146
5,1,10,24,1,2,0,0,41,1,1,1,880.9378855
5,1,10,25,1,2,1,1,95,2,2,1,776.6884835
5,1,10,26,1,1,0,1,76,2,2,1,485.8110156
5,1,10,27,2,1,1,0,62,1,1,1,1045.538761
5,1,10,28,2,2,0,1,22,1,1,1,543.2033455
5,1,10,29,1,2,0,0,10,1,1,1,965.535427
5,1,10,30,2,2,1,0,37,1,1,1,1562.78275
5,1,10,31,1,1,0,0,57,1,1,1,1151.922402
5,1,10,32,1,1,1,1,73,2,2,1,1229.939615
5,1,10,33,2,2,0,0,106,2,2,1,992.5835445
5,1,10,34,1,2,1,0,116,2,2,1,779.9961204
5,1,10,35,2,2,1,0,100,2,2,1,727.6881966
5,1,10,36,2,1,0,1,3,1,1,1,1014.995135
5,1,10,37,2,1,1,1,99,2,2,1,873.9343635
5,1,10,38,1,2,0,0,5,1,1,1,1178.336371
5,1,10,39,1,1,0,1,52,1,1,1,806.8512366
5,1,10,40,2,2,0,0,87,2,2,1,1041.995483
5,1,10,41,1,2,1,0,43,1,1,1,660.4293804
5,1,10,42,2,2,1,0,81,2,2,1,909.2142237
5,1,10,43,2,1,0,1,79,2,2,1,875.8041067
5,1,10,44,2,1,0,1,83,2,2,1,636.1531764
5,1,10,45,1,2,0,0,36,1,1,1,1270.142619
5,1,10,46,2,2,1,0,8,1,1,1,1407.149395
5,1,10,47,1,1,0,0,6,1,1,1,954.2268794
5,1,10,48,1,1,1,1,14,1,1,1,511.2737627
6,1,1,1,1,2,99,99,64,2,2,1,1855.303296
6,1,1,2,2,2,1,0,0,1,1,1,846.9016347
6,1,1,3,1,2,1,0,46,1,2,0,1258.457366
6,1,1,4,1,1,0,1,9,1,1,1,1116.194021
6,1,1,5,2,1,1,0,101,2,2,1,1195.483057
6,1,1,6,2,2,0,1,3,1,1,1,760.4067782
6,1,1,7,1,1,0,0,76,2,2,1,950.6749446
6,1,1,8,1,1,1,1,65,2,2,1,965.1365997
6,1,1,9,1,1,1,1,8,1,1,1,890.6030338
6,1,1,10,2,2,0,0,39,1,1,1,731.9303844
6,1,1,11,1,2,1,0,91,2,2,1,1386.671348
6,1,1,12,1,2,1,1,63,1,1,1,1255.76464
6,1,1,13,2,1,0,0,109,2,2,1,1426.067721
6,1,1,14,2,1,1,1,42,1,1,1,709.3334869
6,1,1,15,1,1,1,0,124,2,2,1,1189.920635
6,1,1,16,2,2,0,0,5,1,1,1,1250.909464
6,1,1,17,2,2,1,1,97,2,2,1,772.660777
6,1,1,18,2,2,1,1,84,2,2,1,2282.467791
6,1,1,19,1,1,0,0,47,1,1,1,979.2914405
6,1,1,20,1,2,0,1,34,1,1,1,977.2553057
6,1,1,21,2,2,1,0,79,2,2,1,1807.150998
6,1,1,22,2,2,1,1,53,1,1,1,1211.017122
6,1,1,23,2,1,0,1,38,1,1,1,1279.412788
6,1,1,24,1,1,1,0,117,2,2,1,1513.05502
6,1,1,25,1,1,1,1,69,2,2,1,1817.406052
6,1,1,26,2,2,0,0,104,2,2,1,1445.445787
6,1,1,27,2,1,0,1,12,1,1,1,704.0785211
6,1,1,28,1,1,1,0,11,1,1,1,1064.520245
6,1,1,29,2,1,1,0,123,2,2,1,2827.223807
6,1,1,30,2,2,0,1,125,2,2,1,1198.410141
6,1,1,31,1,2,1,0,115,2,2,1,1234.871415
6,1,1,32,1,2,1,1,67,2,2,1,1006.103275
6,1,1,33,2,1,0,0,118,2,2,1,906.3624809
6,1,1,34,2,1,1,1,22,1,1,1,1034.107103
6,1,1,35,1,1,1,0,86,2,2,1,1213.242732
6,1,1,36,1,2,0,1,120,2,2,1,1161.433983
6,1,1,37,2,1,0,0,43,1,1,1,807.6354256
6,1,1,38,1,2,0,0,121,2,2,1,1420.359426
6,1,1,39,1,2,1,1,45,1,1,1,1640.128625
6,1,1,40,2,2,1,0,33,1,1,1,706.9889344
6,1,1,41,2,1,0,1,15,1,1,1,683.1631749
6,1,1,42,2,1,1,1,32,1,1,1,619.6967438
6,1,1,43,1,2,0,0,24,1,1,1,1039.212989
6,1,1,44,1,1,0,1,28,1,1,1,1514.353132
6,1,1,45,1,2,0,1,90,2,2,1,1146.426986
6,1,1,46,2,1,0,0,40,1,1,1,1681.64994
6,1,1,47,2,2,0,1,99,2,2,1,1138.623565
6,1,1,48,1,1,0,0,114,2,2,1,1169.560248
6,1,2,1,1,2,99,99,64,2,2,1,1209.782489
6,1,2,2,2,2,1,0,0,1,1,1,846.4883808
6,1,2,3,1,2,1,0,28,1,1,1,2201.077859
6,1,2,4,1,1,0,1,14,1,1,1,949.8936408
6,1,2,5,2,1,1,0,84,2,2,1,1412.182184
6,1,2,6,2,2,0,1,2,1,1,1,824.3557126
6,1,2,7,1,1,0,0,102,2,2,1,1539.947325
6,1,2,8,1,1,1,1,90,2,2,1,1531.182423
6,1,2,9,1,1,1,1,24,1,1,1,969.6512986
6,1,2,10,2,2,0,0,8,1,1,1,799.5357704
6,1,2,11,1,2,1,0,96,2,2,1,1299.815815
6,1,2,12,1,2,1,1,29,1,1,1,1515.918305
6,1,2,13,2,1,0,0,108,2,2,1,747.3618574
6,1,2,14,2,1,1,1,30,1,1,1,1290.30776
6,1,2,15,1,1,1,0,97,2,1,0,1555.691704
6,1,2,16,2,2,0,0,45,1,1,1,809.4359189
6,1,2,17,2,2,1,1,85,2,2,1,1357.598958
6,1,2,18,2,2,1,1,67,2,2,1,1244.224299
6,1,2,19,1,1,0,0,13,1,1,1,831.4073249
6,1,2,20,1,2,0,1,54,1,1,1,1417.802315
6,1,2,21,2,2,1,0,105,2,2,1,805.4239224
6,1,2,22,2,2,1,1,40,1,1,1,1225.878566
6,1,2,23,2,1,0,1,11,1,1,1,837.306377
6,1,2,24,1,1,1,0,110,2,2,1,1536.398596
6,1,2,25,1,1,1,1,126,2,2,1,1927.708074
6,1,2,26,2,2,0,0,66,2,1,0,927.0729637
6,1,2,27,2,1,0,1,20,1,1,1,902.6742904
6,1,2,28,1,1,1,0,60,1,1,1,1310.429621
6,1,2,29,2,1,1,0,87,2,2,1,886.8138543
6,1,2,30,2,2,0,1,70,2,2,1,823.7754256
6,1,2,31,1,2,1,0,111,2,2,1,1386.672309
6,1,2,32,1,2,1,1,117,2,2,1,1192.089819
6,1,2,33,2,1,0,0,119,2,2,1,1140.984469
6,1,2,34,2,1,1,1,42,1,1,1,659.5855593
6,1,2,35,1,1,1,0,112,2,2,1,1205.809605
6,1,2,36,1,2,0,1,72,2,2,1,722.0292739
6,1,2,37,2,1,0,0,32,1,1,1,1033.659865
6,1,2,38,1,2,0,0,77,2,2,1,1220.048122
6,1,2,39,1,2,1,1,62,1,1,1,919.9351105
6,1,2,40,2,2,1,0,23,1,1,1,1575.637234
6,1,2,41,2,1,0,1,15,1,1,1,1277.308685
6,1,2,42,2,1,1,1,59,1,1,1,1070.43661
6,1,2,43,1,2,0,0,49,1,1,1,1136.069661
6,1,2,44,1,1,0,1,48,1,1,1,1767.121759
6,1,2,45,1,2,0,1,89,2,2,1,1276.825861
6,1,2,46,2,1,0,0,16,1,1,1,1518.326016
6,1,2,47,2,2,0,1,99,2,2,1,854.0827697
6,1,2,48,1,1,0,0,86,2,2,1,1312.208313
6,1,3,1,1,2,99,99,64,2,2,1,924.8136911
6,1,3,2,2,2,1,0,0,1,1,1,724.4382673
6,1,3,3,1,2,1,0,32,1,1,1,1075.996788
6,1,3,4,1,1,0,1,20,1,1,1,805.9840119
6,1,3,5,2,1,1,0,78,2,2,1,1345.99161
6,1,3,6,2,2,0,1,53,1,1,1,1088.843578
6,1,3,7,1,1,0,0,118,2,2,1,1257.784104
6,1,3,8,1,1,1,1,65,2,2,1,964.4171721
6,1,3,9,1,1,1,1,52,1,1,1,1290.088149
6,1,3,10,2,2,0,0,59,1,1,1,1419.696423
6,1,3,11,1,2,1,0,87,2,2,1,1015.006035
6,1,3,12,1,2,1,1,15,1,1,1,986.0654119
6,1,3,13,2,1,0,0,116,2,2,1,1487.280008
6,1,3,14,2,1,1,1,8,1,1,1,1271.87226
6,1,3,15,1,1,1,0,70,2,2,1,1225.963846
6,1,3,16,2,2,0,0,25,1,1,1,997.2252008
6,1,3,17,2,2,1,1,67,2,2,1,890.0297997
6,1,3,18,2,2,1,1,103,2,2,1,1179.039769
6,1,3,19,1,1,0,0,23,1,1,1,1192.540584
6,1,3,20,1,2,0,1,3,1,1,1,2453.686507
6,1,3,21,2,2,1,0,68,2,2,1,1256.04196
6,1,3,22,2,2,1,1,37,1,1,1,1770.302759
6,1,3,23,2,1,0,1,62,1,1,1,1264.059221
6,1,3,24,1,1,1,0,125,2,2,1,2202.872582
6,1,3,25,1,1,1,1,104,2,2,1,2063.31126
6,1,3,26,2,2,0,0,115,2,2,1,1137.202342
6,1,3,27,2,1,0,1,30,1,1,1,824.1489255
6,1,3,28,1,1,1,0,63,1,1,1,987.6940637
6,1,3,29,2,1,1,0,101,2,2,1,817.1110996
6,1,3,30,2,2,0,1,95,2,2,1,796.1745928
6,1,3,31,1,2,1,0,127,2,2,1,1120.98636
6,1,3,32,1,2,1,1,123,2,2,1,928.8301761
6,1,3,33,2,1,0,0,90,2,2,1,824.3425679
6,1,3,34,2,1,1,1,50,1,1,1,1043.93672
6,1,3,35,1,1,1,0,97,2,2,1,1086.991467
6,1,3,36,1,2,0,1,88,2,2,1,1135.885956
6,1,3,37,2,1,0,0,11,1,1,1,783.2223256
6,1,3,38,1,2,0,0,89,2,2,1,803.9536471
6,1,3,39,1,2,1,1,45,1,1,1,2056.045487
6,1,3,40,2,2,1,0,16,1,1,1,714.349926
6,1,3,41,2,1,0,1,17,1,1,1,970.4393349
6,1,3,42,2,1,1,1,44,1,1,1,1072.178434
6,1,3,43,1,2,0,0,4,1,1,1,1209.729589
6,1,3,44,1,1,0,1,22,1,1,1,1110.457193
6,1,3,45,1,2,0,1,94,2,2,1,798.3280676
6,1,3,46,2,1,0,0,6,1,1,1,931.07406
6,1,3,47,2,2,0,1,73,2,2,1,1450.158617
6,1,3,48,1,1,0,0,84,2,2,1,1012.512404
6,1,4,1,1,2,99,99,64,2,2,1,1748.464403
6,1,4,2,2,2,1,0,0,1,1,1,1514.274905
6,1,4,3,1,2,1,0,3,1,1,1,1242.299092
6,1,4,4,1,1,0,1,62,1,1,1,1653.059092
6,1,4,5,2,1,1,0,93,2,1,0,1431.349937
6,1,4,6,2,2,0,1,33,1,1,1,1122.074158
6,1,4,7,1,1,0,0,114,2,2,1,985.6762029
6,1,4,8,1,1,1,1,77,2,2,1,1486.386173
6,1,4,9,1,1,1,1,28,1,1,1,1391.690671
6,1,4,10,2,2,0,0,45,1,1,1,2525.075301
6,1,4,11,1,2,1,0,96,2,2,1,2708.730117
6,1,4,12,1,2,1,1,22,1,1,1,3061.106169
6,1,4,13,2,1,0,0,66,2,2,1,1103.547607
6,1,4,14,2,1,1,1,51,1,1,1,2023.80428
6,1,4,15,1,1,1,0,108,2,2,1,2539.759453
6,1,4,16,2,2,0,0,8,1,1,1,2211.25629
6,1,4,17,2,2,1,1,117,2,2,1,1295.474561
6,1,4,18,2,2,1,1,123,2,2,1,2399.986214
6,1,4,19,1,1,0,0,47,1,1,1,1404.845879
6,1,4,20,1,2,0,1,57,1,1,1,1544.794808
6,1,4,21,2,2,1,0,112,2,2,1,1320.148951
6,1,4,22,2,2,1,1,56,1,1,1,1294.757057
6,1,4,23,2,1,0,1,38,1,1,1,1200.222497
6,1,4,24,1,1,1,0,101,2,2,1,1620.177324
