SID,CB,block,trial,eye,loc,locrep,eyerep,tarimg,urban,resp,corr,RT
1,1,1,1,2,2,99,99,2,1,1,1,1057.908535
1,1,1,2,1,4,0,0,6,2,2,1,858.1020492
1,1,1,3,2,3,0,0,1,1,1,1,660.7013529
1,1,1,4,2,3,1,1,9,2,2,1,790.8992951
1,1,1,5,2,1,0,1,8,2,2,1,667.8568441
1,1,1,6,1,1,1,0,7,2,2,1,965.3725398
1,1,1,7,1,2,0,1,10,2,2,1,610.7068511
1,1,1,8,1,2,1,1,3,1,1,1,622.948996
1,1,1,9,2,4,0,0,6,2,1,0,578.7618586
1,1,1,10,2,3,0,1,4,1,1,1,831.9711536
1,1,1,11,2,4,0,1,5,1,1,1,658.6251415
1,1,1,12,1,4,1,0,4,1,1,1,620.815397
1,1,1,13,1,4,1,1,8,2,2,1,464.617044
1,1,1,14,2,1,0,0,10,2,2,1,610.6433722
1,1,1,15,2,1,1,1,3,1,1,1,631.1528517
1,1,1,16,2,3,0,1,7,2,1,0,474.706033
1,1,1,17,1,2,0,0,9,2,2,1,1011.960336
1,1,1,18,2,2,1,0,2,1,1,1,696.1110791
1,1,1,19,1,3,0,0,1,1,1,1,552.8393537
1,1,1,20,1,3,1,1,7,2,1,0,791.1461578
1,1,1,21,1,3,1,1,5,1,1,1,651.4690092
1,1,1,22,2,1,0,0,3,1,1,1,741.8685197
1,1,1,23,1,1,1,0,2,1,1,1,868.7694024
1,1,1,24,1,1,1,1,10,2,2,1,598.7029129
1,1,1,25,1,2,0,1,5,1,1,1,842.5227699
1,1,1,26,2,2,1,0,6,2,2,1,837.5508913
1,1,1,27,2,4,0,1,1,1,1,1,568.3429711
1,1,1,28,2,4,1,1,4,1,1,1,1254.297094
1,1,1,29,1,3,0,0,1,1,1,1,616.384693
1,1,1,30,1,3,1,1,3,1,1,1,620.0562143
1,1,1,31,2,3,1,0,9,2,2,1,743.6359923
1,1,1,32,1,2,0,0,2,1,1,1,678.6017828
1,1,1,33,1,1,0,1,8,2,2,1,639.708407
1,1,1,34,2,1,1,0,10,2,2,1,578.7855831
1,1,1,35,1,1,1,0,4,1,1,1,768.2683994
1,1,1,36,1,4,0,1,5,1,1,1,670.0731581
1,1,1,37,1,4,1,1,1,1,1,1,575.8373374
1,1,1,38,2,2,0,0,9,2,2,1,636.9198204
1,1,1,39,2,4,0,1,7,2,2,1,800.0306494
1,1,1,40,2,4,1,1,6,2,1,0,708.3413617
1,1,1,41,1,4,1,0,8,2,2,1,884.4099164
1,1,1,42,2,2,0,0,5,1,1,1,1045.029677
1,1,1,43,2,2,1,1,10,2,2,1,735.9720282
1,1,1,44,1,2,1,0,6,2,1,0,758.9793094
1,1,1,45,1,1,0,1,2,1,1,1,772.8972351
1,1,1,46,2,1,1,0,4,1,1,1,698.1757488
1,1,1,47,2,3,0,1,7,2,2,1,1002.910736
1,1,1,48,1,3,1,0,8,2,2,1,663.068349
1,1,2,1,2,2,99,99,2,1,1,1,943.0359558
1,1,2,2,1,4,0,0,6,2,2,1,941.7032178
1,1,2,3,2,3,0,0,5,1,1,1,908.9714708
1,1,2,4,2,3,1,1,7,2,2,1,765.1053511
1,1,2,5,2,1,0,1,10,2,2,1,538.3853836
1,1,2,6,1,1,1,0,9,2,2,1,545.3876273
1,1,2,7,1,2,0,1,8,2,2,1,712.5918884
1,1,2,8,1,2,1,1,3,1,1,1,736.3266128
1,1,2,9,2,4,0,0,9,2,1,0,711.8060954
1,1,2,10,2,3,0,1,4,1,1,1,1222.623971
1,1,2,11,2,4,0,1,1,1,1,1,770.5267121
1,1,2,12,1,4,1,0,2,1,1,1,904.0220343
1,1,2,13,1,4,1,1,8,2,2,1,728.3641691
1,1,2,14,2,1,0,0,6,2,2,1,663.8474094
1,1,2,15,2,1,1,1,4,1,1,1,818.1051654
1,1,2,16,2,3,0,1,7,2,2,1,781.8173133
1,1,2,17,1,2,0,0,10,2,2,1,546.6998466
1,1,2,18,2,2,1,0,3,1,2,0,729.4705629
1,1,2,19,1,3,0,0,5,1,1,1,744.8597257
1,1,2,20,1,3,1,1,8,2,2,1,670.7537936
1,1,2,21,1,3,1,1,1,1,1,1,680.3060968
1,1,2,22,2,1,0,0,2,1,1,1,1346.370461
1,1,2,23,1,1,1,0,4,1,1,1,1032.817668
1,1,2,24,1,1,1,1,7,2,2,1,1027.707931
1,1,2,25,1,2,0,1,3,1,1,1,999.8211046
1,1,2,26,2,2,1,0,6,2,2,1,1107.803329
1,1,2,27,2,4,0,1,5,1,1,1,1596.098031
1,1,2,28,2,4,1,1,1,1,1,1,473.2219714
1,1,2,29,1,3,0,0,3,1,1,1,530.7669446
1,1,2,30,1,3,1,1,1,1,1,1,1130.525276
1,1,2,31,2,3,1,0,10,2,2,1,608.9576529
1,1,2,32,1,2,0,0,5,1,1,1,869.2121522
1,1,2,33,1,1,0,1,9,2,2,1,1071.07401
1,1,2,34,2,1,1,0,7,2,2,1,608.3071535
1,1,2,35,1,1,1,0,4,1,1,1,812.6379587
1,1,2,36,1,4,0,1,2,1,1,1,657.1535836
1,1,2,37,1,4,1,1,3,1,1,1,515.0443567
1,1,2,38,2,2,0,0,6,2,2,1,978.9676203
1,1,2,39,2,4,0,1,10,2,2,1,928.1273736
1,1,2,40,2,4,1,1,9,2,2,1,656.1148367
1,1,2,41,1,4,1,0,8,2,2,1,601.6652649
1,1,2,42,2,2,0,0,5,1,1,1,469.7174833
1,1,2,43,2,2,1,1,9,2,2,1,831.4161934
1,1,2,44,1,2,1,0,10,2,2,1,514.436177
1,1,2,45,1,1,0,1,1,1,1,1,810.0638541
1,1,2,46,2,1,1,0,4,1,1,1,701.9748695
1,1,2,47,2,3,0,1,8,2,2,1,1166.497657
1,1,2,48,1,3,1,0,7,2,2,1,940.2005614
1,1,3,1,2,2,99,99,2,1,1,1,770.3385192
1,1,3,2,1,4,0,0,6,2,1,0,591.9981869
1,1,3,3,2,3,0,0,4,1,1,1,804.8229914
1,1,3,4,2,3,1,1,8,2,2,1,720.6703892
1,1,3,5,2,1,0,1,7,2,2,1,552.2757373
1,1,3,6,1,1,1,0,6,2,2,1,846.8553701
1,1,3,7,1,2,0,1,9,2,2,1,769.7492549
1,1,3,8,1,2,1,1,1,1,1,1,670.8733777
1,1,3,9,2,4,0,0,10,2,1,0,504.8011583
1,1,3,10,2,3,0,1,5,1,1,1,840.1057597
1,1,3,11,2,4,0,1,2,1,1,1,683.1267434
1,1,3,12,1,4,1,0,4,1,1,1,644.1426377
1,1,3,13,1,4,1,1,6,2,2,1,678.7322671
1,1,3,14,2,1,0,0,9,2,2,1,624.337839
1,1,3,15,2,1,1,1,1,1,1,1,754.9830195
1,1,3,16,2,3,0,1,7,2,2,1,657.5120152
1,1,3,17,1,2,0,0,8,2,2,1,675.6987416
1,1,3,18,2,2,1,0,3,1,2,0,644.9508728
1,1,3,19,1,3,0,0,2,1,1,1,1215.611147
1,1,3,20,1,3,1,1,7,2,2,1,898.634657
1,1,3,21,1,3,1,1,5,1,1,1,754.7832851
1,1,3,22,2,1,0,0,2,1,1,1,961.4522322
1,1,3,23,1,1,1,0,3,1,1,1,775.5479629
1,1,3,24,1,1,1,1,6,2,2,1,740.5851544
1,1,3,25,1,2,0,1,5,1,1,1,1075.607948
1,1,3,26,2,2,1,0,8,2,2,1,588.7312638
1,1,3,27,2,4,0,1,1,1,1,1,609.8575795
1,1,3,28,2,4,1,1,4,1,1,1,549.6346273
1,1,3,29,1,3,0,0,2,1,1,1,747.5389873
1,1,3,30,1,3,1,1,5,1,1,1,602.1727764
1,1,3,31,2,3,1,0,9,2,2,1,606.7406978
1,1,3,32,1,2,0,0,1,1,1,1,738.4900276
1,1,3,33,1,1,0,1,10,2,2,1,705.2449982
1,1,3,34,2,1,1,0,8,2,2,1,1049.322843
1,1,3,35,1,1,1,0,4,1,1,1,1051.896947
1,1,3,36,1,4,0,1,3,1,1,1,1509.806379
1,1,3,37,1,4,1,1,2,1,1,1,510.103897
1,1,3,38,2,2,0,0,7,2,2,1,622.5427946
1,1,3,39,2,4,0,1,9,2,2,1,842.1117596
1,1,3,40,2,4,1,1,6,2,2,1,572.7874611
1,1,3,41,1,4,1,0,10,2,2,1,498.1602319
1,1,3,42,2,2,0,0,3,1,2,0,658.3503867
1,1,3,43,2,2,1,1,8,2,2,1,620.7342851
1,1,3,44,1,2,1,0,6,2,2,1,752.1495486
1,1,3,45,1,1,0,1,5,1,2,0,766.2591937
1,1,3,46,2,1,1,0,1,1,1,1,651.7918545
1,1,3,47,2,3,0,1,10,2,2,1,742.0172784
1,1,3,48,1,3,1,0,9,2,2,1,973.0163061
1,1,4,1,2,2,99,99,2,1,1,1,742.5998102
1,1,4,2,1,4,0,0,6,2,2,1,725.789103
1,1,4,3,2,3,0,0,4,1,1,1,573.431869
1,1,4,4,2,3,1,1,8,2,2,1,578.6130996
1,1,4,5,2,1,0,1,9,2,2,1,584.4368148
1,1,4,6,1,1,1,0,7,2,2,1,541.3560714
1,1,4,7,1,2,0,1,10,2,2,1,636.2972136
1,1,4,8,1,2,1,1,1,1,2,0,679.0996757
1,1,4,9,2,4,0,0,6,2,2,1,815.7125211
1,1,4,10,2,3,0,1,2,1,1,1,659.2772438
1,1,4,11,2,4,0,1,3,1,1,1,573.4023736
1,1,4,12,1,4,1,0,4,1,1,1,715.1557335
1,1,4,13,1,4,1,1,9,2,2,1,682.4396958
1,1,4,14,2,1,0,0,10,2,2,1,859.2696777
1,1,4,15,2,1,1,1,1,1,1,1,637.5241533
1,1,4,16,2,3,0,1,7,2,2,1,776.6575625
1,1,4,17,1,2,0,0,8,2,2,1,1197.638582
1,1,4,18,2,2,1,0,3,1,1,1,673.6199656
1,1,4,19,1,3,0,0,2,1,1,1,762.4943773
1,1,4,20,1,3,1,1,6,2,2,1,849.0126936
1,1,4,21,1,3,1,1,5,1,1,1,1091.307131
1,1,4,22,2,1,0,0,3,1,1,1,644.0195271
1,1,4,23,1,1,1,0,5,1,1,1,646.9712995
1,1,4,24,1,1,1,1,9,2,2,1,570.0562622
1,1,4,25,1,2,0,1,4,1,2,0,543.5278218
1,1,4,26,2,2,1,0,7,2,2,1,749.2509962
1,1,4,27,2,4,0,1,2,1,1,1,851.6909932
1,1,4,28,2,4,1,1,1,1,1,1,949.6980419
1,1,4,29,1,3,0,0,5,1,1,1,780.0719622
1,1,4,30,1,3,1,1,2,1,1,1,1009.968122
1,1,4,31,2,3,1,0,8,2,2,1,629.0965178
1,1,4,32,1,2,0,0,3,1,1,1,664.7649691
1,1,4,33,1,1,0,1,10,2,2,1,498.4949392
1,1,4,34,2,1,1,0,9,2,2,1,834.7238328
1,1,4,35,1,1,1,0,1,1,1,1,733.7499436
1,1,4,36,1,4,0,1,4,1,1,1,660.0203966
1,1,4,37,1,4,1,1,3,1,1,1,557.3877185
1,1,4,38,2,2,0,0,8,2,2,1,763.6745092
1,1,4,39,2,4,0,1,10,2,2,1,849.6106144
1,1,4,40,2,4,1,1,6,2,2,1,827.8799658
1,1,4,41,1,4,1,0,7,2,2,1,687.544303
1,1,4,42,2,2,0,0,1,1,1,1,752.3255586
1,1,4,43,2,2,1,1,8,2,2,1,918.7600568
1,1,4,44,1,2,1,0,9,2,2,1,1173.879171
1,1,4,45,1,1,0,1,5,1,1,1,915.4161895
1,1,4,46,2,1,1,0,2,1,1,1,650.9143696
1,1,4,47,2,3,0,1,10,2,2,1,861.2820893
1,1,4,48,1,3,1,0,6,2,2,1,1303.261184
1,1,5,1,2,2,99,99,2,1,1,1,743.7417905
1,1,5,2,1,4,0,0,6,2,2,1,710.4050694
1,1,5,3,2,3,0,0,5,1,1,1,775.045902
1,1,5,4,2,3,1,1,6,2,2,1,628.4277446
1,1,5,5,2,1,0,1,8,2,2,1,631.3371973
1,1,5,6,1,1,1,0,9,2,2,1,530.0019907
1,1,5,7,1,2,0,1,7,2,2,1,937.5777256
1,1,5,8,1,2,1,1,4,1,2,0,776.7979859
1,1,5,9,2,4,0,0,8,2,2,1,845.3648968
1,1,5,10,2,3,0,1,1,1,1,1,544.3322093
1,1,5,11,2,4,0,1,3,1,1,1,727.3331168
1,1,5,12,1,4,1,0,4,1,2,0,982.0646248
1,1,5,13,1,4,1,1,10,2,2,1,674.0114191
1,1,5,14,2,1,0,0,6,2,2,1,707.5693547
1,1,5,15,2,1,1,1,1,1,1,1,491.7527025
1,1,5,16,2,3,0,1,9,2,2,1,964.767566
1,1,5,17,1,2,0,0,7,2,2,1,826.3830803
1,1,5,18,2,2,1,0,3,1,2,0,1277.892677
1,1,5,19,1,3,0,0,2,1,1,1,798.2753597
1,1,5,20,1,3,1,1,6,2,2,1,1010.540716
1,1,5,21,1,3,1,1,5,1,1,1,1423.121351
1,1,5,22,2,1,0,0,1,1,1,1,610.3192447
1,1,5,23,1,1,1,0,3,1,1,1,678.9457873
1,1,5,24,1,1,1,1,9,2,2,1,512.4657638
1,1,5,25,1,2,0,1,2,1,1,1,712.612086
1,1,5,26,2,2,1,0,8,2,1,0,632.8222207
1,1,5,27,2,4,0,1,4,1,1,1,1306.68456
1,1,5,28,2,4,1,1,5,1,2,0,1562.992463
1,1,5,29,1,3,0,0,3,1,1,1,696.942718
1,1,5,30,1,3,1,1,2,1,1,1,665.9133616
1,1,5,31,2,3,1,0,7,2,2,1,675.6827116
1,1,5,32,1,2,0,0,4,1,1,1,724.8013318
1,1,5,33,1,1,0,1,10,2,2,1,540.6536348
1,1,5,34,2,1,1,0,9,2,2,1,730.6599922
1,1,5,35,1,1,1,0,1,1,1,1,658.2272758
1,1,5,36,1,4,0,1,5,1,1,1,1117.041444
1,1,5,37,1,4,1,1,3,1,1,1,795.7689019
1,1,5,38,2,2,0,0,8,2,2,1,816.8605929
1,1,5,39,2,4,0,1,6,2,2,1,731.9702881
1,1,5,40,2,4,1,1,7,2,2,1,722.933511
1,1,5,41,1,4,1,0,10,2,2,1,794.4813687
1,1,5,42,2,2,0,0,4,1,1,1,703.3255608
1,1,5,43,2,2,1,1,7,2,2,1,631.954354
1,1,5,44,1,2,1,0,10,2,2,1,554.0166001
1,1,5,45,1,1,0,1,2,1,1,1,664.042976
1,1,5,46,2,1,1,0,1,1,1,1,538.5027232
1,1,5,47,2,3,0,1,8,2,2,1,497.4276589
1,1,5,48,1,3,1,0,9,2,2,1,546.1618786
1,1,6,1,2,2,99,99,2,1,1,1,611.2486667
1,1,6,2,1,4,0,0,6,2,2,1,839.8457526
1,1,6,3,2,3,0,0,1,1,1,1,890.6722134
1,1,6,4,2,3,1,1,7,2,2,1,1243.311063
1,1,6,5,2,1,0,1,10,2,2,1,805.9595216
1,1,6,6,1,1,1,0,8,2,2,1,753.9083653
1,1,6,7,1,2,0,1,9,2,2,1,792.2794819
1,1,6,8,1,2,1,1,3,1,1,1,797.2930386
1,1,6,9,2,4,0,0,7,2,2,1,1034.130849
1,1,6,10,2,3,0,1,2,1,2,0,1228.804835
1,1,6,11,2,4,0,1,5,1,1,1,839.6373619
1,1,6,12,1,4,1,0,4,1,1,1,786.7455902
1,1,6,13,1,4,1,1,10,2,2,1,1487.747115
1,1,6,14,2,1,0,0,8,2,2,1,432.3575418
1,1,6,15,2,1,1,1,2,1,1,1,587.4693785
1,1,6,16,2,3,0,1,6,2,2,1,728.4205949
1,1,6,17,1,2,0,0,9,2,2,1,606.9657595
1,1,6,18,2,2,1,0,3,1,1,1,611.2146829
1,1,6,19,1,3,0,0,1,1,1,1,767.7051036
1,1,6,20,1,3,1,1,10,2,2,1,1301.498521
1,1,6,21,1,3,1,1,5,1,1,1,852.745129
1,1,6,22,2,1,0,0,3,1,1,1,743.1833039
1,1,6,23,1,1,1,0,5,1,1,1,788.50633
1,1,6,24,1,1,1,1,7,2,2,1,712.6919157
1,1,6,25,1,2,0,1,4,1,1,1,960.9370267
1,1,6,26,2,2,1,0,9,2,2,1,838.8275241
1,1,6,27,2,4,0,1,2,1,1,1,961.4637739
1,1,6,28,2,4,1,1,1,1,1,1,831.9759625
1,1,6,29,1,3,0,0,4,1,1,1,1234.346421
1,1,6,30,1,3,1,1,3,1,1,1,733.1818389
1,1,6,31,2,3,1,0,8,2,2,1,852.1462467
1,1,6,32,1,2,0,0,1,1,2,0,934.3608164
1,1,6,33,1,1,0,1,6,2,2,1,1796.544756
1,1,6,34,2,1,1,0,8,2,2,1,593.1504264
1,1,6,35,1,1,1,0,2,1,1,1,1158.095669
1,1,6,36,1,4,0,1,5,1,1,1,796.5284055
1,1,6,37,1,4,1,1,4,1,1,1,945.4664311
1,1,6,38,2,2,0,0,6,2,2,1,496.4725887
1,1,6,39,2,4,0,1,10,2,1,0,464.2877867
1,1,6,40,2,4,1,1,9,2,2,1,921.191494
1,1,6,41,1,4,1,0,7,2,2,1,704.7557614
1,1,6,42,2,2,0,0,1,1,1,1,1024.365346
1,1,6,43,2,2,1,1,9,2,2,1,827.7001088
1,1,6,44,1,2,1,0,8,2,2,1,583.7818272
1,1,6,45,1,1,0,1,5,1,1,1,467.6893621
1,1,6,46,2,1,1,0,3,1,1,1,572.5652848
1,1,6,47,2,3,0,1,6,2,2,1,594.1112672
1,1,6,48,1,3,1,0,7,2,2,1,638.761352
1,1,7,1,2,2,99,99,2,1,1,1,694.4144592
1,1,7,2,1,4,0,0,6,2,2,1,719.8108584
1,1,7,3,2,3,0,0,5,1,1,1,791.2202168
1,1,7,4,2,3,1,1,10,2,2,1,932.2297822
1,1,7,5,2,1,0,1,8,2,2,1,587.2484846
1,1,7,6,1,1,1,0,7,2,2,1,759.7106001
1,1,7,7,1,2,0,1,9,2,2,1,2342.077936
1,1,7,8,1,2,1,1,3,1,1,1,821.3429139
1,1,7,9,2,4,0,0,8,2,2,1,768.8259243
1,1,7,10,2,3,0,1,4,1,1,1,1454.561397
1,1,7,11,2,4,0,1,2,1,1,1,1512.766167
1,1,7,12,1,4,1,0,1,1,1,1,945.2798413
1,1,7,13,1,4,1,1,6,2,2,1,1007.781945
1,1,7,14,2,1,0,0,9,2,2,1,1571.689724
1,1,7,15,2,1,1,1,2,1,1,1,1065.407068
1,1,7,16,2,3,0,1,7,2,2,1,962.0818924
1,1,7,17,1,2,0,0,10,2,2,1,944.6088236
1,1,7,18,2,2,1,0,5,1,1,1,895.5520794
1,1,7,19,1,3,0,0,3,1,1,1,736.1865102
1,1,7,20,1,3,1,1,7,2,2,1,735.189121
1,1,7,21,1,3,1,1,4,1,1,1,877.9793039
1,1,7,22,2,1,0,0,2,1,1,1,1015.544013
1,1,7,23,1,1,1,0,3,1,1,1,947.2845586
1,1,7,24,1,1,1,1,10,2,2,1,642.3180981
1,1,7,25,1,2,0,1,4,1,2,0,1005.224833
1,1,7,26,2,2,1,0,8,2,2,1,632.265337
1,1,7,27,2,4,0,1,1,1,1,1,571.4710739
1,1,7,28,2,4,1,1,5,1,1,1,928.7663309
1,1,7,29,1,3,0,0,2,1,1,1,1104.605336
1,1,7,30,1,3,1,1,1,1,1,1,1008.653018
1,1,7,31,2,3,1,0,6,2,2,1,709.2226935
1,1,7,32,1,2,0,0,5,1,1,1,965.4273626
1,1,7,33,1,1,0,1,9,2,2,1,714.9707468
1,1,7,34,2,1,1,0,7,2,2,1,698.5078913
1,1,7,35,1,1,1,0,3,1,1,1,666.6985131
1,1,7,36,1,4,0,1,4,1,1,1,732.0254312
1,1,7,37,1,4,1,1,2,1,1,1,530.1895423
1,1,7,38,2,2,0,0,9,2,2,1,385.6950451
1,1,7,39,2,4,0,1,10,2,2,1,493.910667
1,1,7,40,2,4,1,1,6,2,2,1,695.2024964
1,1,7,41,1,4,1,0,8,2,2,1,567.9412582
1,1,7,42,2,2,0,0,1,1,1,1,453.1847369
1,1,7,43,2,2,1,1,9,2,2,1,543.7900731
1,1,7,44,1,2,1,0,10,2,2,1,526.6626121
1,1,7,45,1,1,0,1,5,1,1,1,718.1697024
1,1,7,46,2,1,1,0,3,1,1,1,597.9571955
1,1,7,47,2,3,0,1,6,2,2,1,858.0299141
1,1,7,48,1,3,1,0,7,2,2,1,924.295231
1,1,8,1,2,2,99,99,2,1,1,1,632.8921118
1,1,8,2,1,4,0,0,6,2,2,1,563.9699751
1,1,8,3,2,3,0,0,3,1,1,1,777.4824689
1,1,8,4,2,3,1,1,7,2,2,1,670.8323408
1,1,8,5,2,1,0,1,10,2,2,1,568.7257685
1,1,8,6,1,1,1,0,8,2,2,1,582.2612173
1,1,8,7,1,2,0,1,6,2,2,1,1010.72955
1,1,8,8,1,2,1,1,2,1,1,1,894.9560826
1,1,8,9,2,4,0,0,10,2,2,1,743.8552834
1,1,8,10,2,3,0,1,4,1,1,1,847.2686247
1,1,8,11,2,4,0,1,5,1,1,1,545.934893
1,1,8,12,1,4,1,0,4,1,1,1,591.9539437
1,1,8,13,1,4,1,1,6,2,2,1,564.8493832
1,1,8,14,2,1,0,0,7,2,2,1,562.4862341
1,1,8,15,2,1,1,1,2,1,2,0,480.9125455
1,1,8,16,2,3,0,1,8,2,2,1,1016.783456
1,1,8,17,1,2,0,0,9,2,2,1,1019.955481
1,1,8,18,2,2,1,0,1,1,1,1,839.4411542
1,1,8,19,1,3,0,0,3,1,1,1,1010.191261
1,1,8,20,1,3,1,1,7,2,2,1,782.7178813
1,1,8,21,1,3,1,1,5,1,1,1,827.4407426
1,1,8,22,2,1,0,0,4,1,1,1,911.0928867
1,1,8,23,1,1,1,0,2,1,1,1,687.0544248
1,1,8,24,1,1,1,1,8,2,2,1,687.9719845
1,1,8,25,1,2,0,1,3,1,1,1,1016.72671
1,1,8,26,2,2,1,0,10,2,2,1,572.7236615
1,1,8,27,2,4,0,1,5,1,1,1,826.2105968
1,1,8,28,2,4,1,1,1,1,1,1,1548.99054
1,1,8,29,1,3,0,0,4,1,2,0,739.4066255
1,1,8,30,1,3,1,1,5,1,1,1,769.0785576
1,1,8,31,2,3,1,0,6,2,2,1,758.6010003
1,1,8,32,1,2,0,0,3,1,1,1,1165.026098
1,1,8,33,1,1,0,1,9,2,2,1,634.9308128
1,1,8,34,2,1,1,0,8,2,2,1,437.6060988
1,1,8,35,1,1,1,0,2,1,1,1,640.620196
1,1,8,36,1,4,0,1,1,1,1,1,643.4985509
1,1,8,37,1,4,1,1,2,1,1,1,694.4872357
1,1,8,38,2,2,0,0,7,2,2,1,623.0740303
1,1,8,39,2,4,0,1,10,2,2,1,578.863489
1,1,8,40,2,4,1,1,9,2,2,1,488.2748243
1,1,8,41,1,4,1,0,6,2,2,1,641.2803133
1,1,8,42,2,2,0,0,5,1,1,1,828.0764942
1,1,8,43,2,2,1,1,8,2,2,1,559.555301
1,1,8,44,1,2,1,0,7,2,2,1,525.9720378
1,1,8,45,1,1,0,1,1,1,1,1,565.4174881
1,1,8,46,2,1,1,0,3,1,1,1,578.8208493
1,1,8,47,2,3,0,1,6,2,1,0,959.6982247
1,1,8,48,1,3,1,0,10,2,2,1,764.9681338
1,1,9,1,2,2,99,99,2,1,1,1,1415.652633
1,1,9,2,1,4,0,0,6,2,2,1,2459.616952
1,1,9,3,2,3,0,0,4,1,1,1,1261.687906
1,1,9,4,2,3,1,1,7,2,2,1,767.2652393
1,1,9,5,2,1,0,1,10,2,2,1,629.1282575
1,1,9,6,1,1,1,0,8,2,2,1,864.7445787
1,1,9,7,1,2,0,1,9,2,2,1,1161.336944
1,1,9,8,1,2,1,1,5,1,1,1,839.5408608
1,1,9,9,2,4,0,0,7,2,2,1,1617.379838
1,1,9,10,2,3,0,1,2,1,1,1,732.9670361
1,1,9,11,2,4,0,1,3,1,1,1,556.0572247
1,1,9,12,1,4,1,0,1,1,1,1,537.5329058
1,1,9,13,1,4,1,1,10,2,1,0,487.5198093
1,1,9,14,2,1,0,0,6,2,2,1,919.7773235
1,1,9,15,2,1,1,1,5,1,1,1,495.0218697
1,1,9,16,2,3,0,1,9,2,2,1,808.2614359
1,1,9,17,1,2,0,0,8,2,2,1,747.878504
1,1,9,18,2,2,1,0,2,1,1,1,978.7095364
1,1,9,19,1,3,0,0,4,1,1,1,1096.283498
1,1,9,20,1,3,1,1,6,2,2,1,897.2240132
1,1,9,21,1,3,1,1,3,1,1,1,746.2296532
1,1,9,22,2,1,0,0,5,1,1,1,1240.170778
1,1,9,23,1,1,1,0,3,1,1,1,1179.590997
1,1,9,24,1,1,1,1,7,2,2,1,624.3349535
1,1,9,25,1,2,0,1,2,1,1,1,755.5972908
1,1,9,26,2,2,1,0,8,2,2,1,768.9903926
1,1,9,27,2,4,0,1,4,1,1,1,919.0229496
1,1,9,28,2,4,1,1,1,1,1,1,694.7655175
1,1,9,29,1,3,0,0,5,1,1,1,887.2773708
1,1,9,30,1,3,1,1,1,1,1,1,744.185823
1,1,9,31,2,3,1,0,10,2,2,1,822.3774927
1,1,9,32,1,2,0,0,2,1,1,1,1146.182782
1,1,9,33,1,1,0,1,9,2,2,1,745.0075229
1,1,9,34,2,1,1,0,8,2,2,1,831.856058
1,1,9,35,1,1,1,0,4,1,1,1,843.0206629
1,1,9,36,1,4,0,1,3,1,1,1,1077.527706
1,1,9,37,1,4,1,1,1,1,1,1,782.7896958
1,1,9,38,2,2,0,0,7,2,2,1,467.0738084
1,1,9,39,2,4,0,1,6,2,2,1,532.3718728
1,1,9,40,2,4,1,1,9,2,2,1,1395.428808
1,1,9,41,1,4,1,0,10,2,2,1,696.453481
1,1,9,42,2,2,0,0,3,1,1,1,984.6182109
1,1,9,43,2,2,1,1,8,2,2,1,653.2364818
1,1,9,44,1,2,1,0,9,2,2,1,631.9396065
1,1,9,45,1,1,0,1,4,1,1,1,762.9329595
1,1,9,46,2,1,1,0,5,1,2,0,912.2916134
1,1,9,47,2,3,0,1,6,2,2,1,743.4147776
1,1,9,48,1,3,1,0,10,2,2,1,861.813325
1,1,10,1,2,2,99,99,2,1,1,1,994.471238
1,1,10,2,1,4,0,0,6,2,2,1,734.0423316
1,1,10,3,2,3,0,0,5,1,1,1,899.891092
1,1,10,4,2,3,1,1,9,2,2,1,795.9795366
1,1,10,5,2,1,0,1,8,2,2,1,615.8108173
1,1,10,6,1,1,1,0,6,2,1,0,610.7658418
1,1,10,7,1,2,0,1,10,2,2,1,821.4198579
1,1,10,8,1,2,1,1,3,1,1,1,712.3296368
1,1,10,9,2,4,0,0,6,2,2,1,639.9664907
1,1,10,10,2,3,0,1,4,1,1,1,698.006151
1,1,10,11,2,4,0,1,1,1,1,1,657.5886391
1,1,10,12,1,4,1,0,5,1,1,1,803.2074836
1,1,10,13,1,4,1,1,9,2,2,1,542.9520223
1,1,10,14,2,1,0,0,8,2,2,1,428.9017848
1,1,10,15,2,1,1,1,1,1,1,1,720.1090171
1,1,10,16,2,3,0,1,10,2,1,0,903.0579873
1,1,10,17,1,2,0,0,7,2,2,1,710.4538009
1,1,10,18,2,2,1,0,4,1,1,1,949.7926193
1,1,10,19,1,3,0,0,3,1,1,1,683.6134156
1,1,10,20,1,3,1,1,10,2,2,1,819.8152506
1,1,10,21,1,3,1,1,2,1,1,1,1102.380686
1,1,10,22,2,1,0,0,4,1,1,1,1054.451175
1,1,10,23,1,1,1,0,3,1,1,1,616.3317936
1,1,10,24,1,1,1,1,9,2,2,1,675.3502483
1,1,10,25,1,2,0,1,5,1,1,1,715.8280336
1,1,10,26,2,2,1,0,6,2,2,1,867.0820799
1,1,10,27,2,4,0,1,1,1,1,1,699.7418841
1,1,10,28,2,4,1,1,2,1,1,1,1395.449648
1,1,10,29,1,3,0,0,3,1,1,1,983.8195941
1,1,10,30,1,3,1,1,4,1,1,1,1572.353688
1,1,10,31,2,3,1,0,8,2,2,1,817.294366
1,1,10,32,1,2,0,0,5,1,1,1,852.255892
1,1,10,33,1,1,0,1,7,2,2,1,637.5639078
1,1,10,34,2,1,1,0,8,2,2,1,719.7717451
1,1,10,35,1,1,1,0,1,1,1,1,662.9234375
1,1,10,36,1,4,0,1,2,1,1,1,688.5327157
1,1,10,37,1,4,1,1,1,1,1,1,784.481186
1,1,10,38,2,2,0,0,9,2,2,1,780.5993506
1,1,10,39,2,4,0,1,10,2,2,1,960.8575176
1,1,10,40,2,4,1,1,7,2,2,1,534.1284447
1,1,10,41,1,4,1,0,6,2,1,0,548.3698566
1,1,10,42,2,2,0,0,3,1,1,1,729.8815732
1,1,10,43,2,2,1,1,10,2,2,1,1128.527291
1,1,10,44,1,2,1,0,7,2,2,1,933.911975
1,1,10,45,1,1,0,1,2,1,1,1,852.3892621
1,1,10,46,2,1,1,0,4,1,1,1,758.0152627
1,1,10,47,2,3,0,1,6,2,2,1,971.5931588
1,1,10,48,1,3,1,0,8,2,2,1,848.5173653
2,1,1,1,2,3,99,99,2,1,1,1,881.430893
2,1,1,2,2,3,1,1,10,2,2,1,640.4528422
2,1,1,3,2,4,0,1,1,1,1,1,899.2870797
2,1,1,4,1,4,1,0,5,1,1,1,1130.85325
2,1,1,5,2,1,0,0,3,1,1,1,1050.111842
2,1,1,6,2,2,0,1,4,1,1,1,876.617712
2,1,1,7,2,2,1,1,9,2,2,1,1125.94421
2,1,1,8,1,2,1,0,5,1,1,1,941.7336748
2,1,1,9,1,1,0,1,6,2,2,1,868.8928336
2,1,1,10,2,1,1,0,3,1,1,1,646.3454866
2,1,1,11,1,4,0,0,1,1,1,1,880.9939139
2,1,1,12,2,4,1,0,8,2,2,1,634.5720603
2,1,1,13,2,3,0,1,7,2,2,1,1005.928231
2,1,1,14,2,3,1,1,10,2,2,1,817.965063
2,1,1,15,1,3,1,0,8,2,2,1,861.6841228
2,1,1,16,1,1,0,1,2,1,1,1,735.5741626
2,1,1,17,2,1,1,0,6,2,2,1,878.7378455
2,1,1,18,2,1,1,1,9,2,2,1,896.2817672
2,1,1,19,1,2,0,0,4,1,1,1,929.2299198
2,1,1,20,1,2,1,1,7,2,2,1,768.6858217
2,1,1,21,1,4,0,1,10,2,2,1,750.3657255
2,1,1,22,2,4,1,0,8,2,2,1,596.337199
2,1,1,23,1,2,0,0,1,1,1,1,705.6560088
2,1,1,24,1,3,0,1,3,1,1,1,1137.456025
2,1,1,25,2,4,0,0,6,2,2,1,840.4507264
2,1,1,26,1,2,0,0,2,1,1,1,907.6265499
2,1,1,27,2,2,1,0,5,1,1,1,851.560188
2,1,1,28,2,2,1,1,4,1,1,1,942.2793377
2,1,1,29,1,1,0,0,5,1,1,1,900.7631263
2,1,1,30,1,3,0,1,2,1,1,1,996.8241276
2,1,1,31,1,1,0,1,9,2,2,1,889.9620827
2,1,1,32,2,1,1,0,7,2,2,1,1178.922223
2,1,1,33,2,1,1,1,3,1,1,1,953.1794472
2,1,1,34,1,4,0,0,9,2,2,1,1382.783989
2,1,1,35,1,4,1,1,1,1,1,1,763.7937728
2,1,1,36,1,3,0,1,4,1,1,1,785.882212
2,1,1,37,2,3,1,0,6,2,2,1,879.3133241
2,1,1,38,2,3,1,1,10,2,2,1,1056.408443
2,1,1,39,1,2,0,0,7,2,2,1,971.2613369
2,1,1,40,2,2,1,0,2,1,1,1,728.3382006
2,1,1,41,2,4,0,1,8,2,2,1,544.3238737
2,1,1,42,1,3,0,0,6,2,2,1,1446.956103
2,1,1,43,1,3,1,1,5,1,1,1,745.9747759
2,1,1,44,1,4,0,1,10,2,2,1,664.6921926
2,1,1,45,2,4,1,0,9,2,2,1,674.7084055
2,1,1,46,1,1,0,0,3,1,2,0,595.7524229
2,1,1,47,1,1,1,1,7,2,2,1,1151.793618
2,1,1,48,2,2,0,0,1,1,1,1,790.5594581
2,1,2,1,2,3,99,99,2,1,1,1,904.3766188
2,1,2,2,2,3,1,1,10,2,2,1,800.71385
2,1,2,3,2,4,0,1,5,1,1,1,677.3232264
2,1,2,4,1,4,1,0,3,1,1,1,822.4771998
2,1,2,5,2,1,0,0,4,1,1,1,1082.63071
2,1,2,6,2,2,0,1,1,1,1,1,907.5451174
2,1,2,7,2,2,1,1,7,2,2,1,1675.878919
2,1,2,8,1,2,1,0,2,1,1,1,733.561751
2,1,2,9,1,1,0,1,8,2,2,1,852.1116218
2,1,2,10,2,1,1,0,4,1,1,1,686.4901674
2,1,2,11,1,4,0,0,1,1,1,1,831.0452583
2,1,2,12,2,4,1,0,10,2,2,1,778.2676204
2,1,2,13,2,3,0,1,6,2,1,0,888.0487364
2,1,2,14,2,3,1,1,7,2,2,1,632.1887134
2,1,2,15,1,3,1,0,9,2,2,1,1139.591548
2,1,2,16,1,1,0,1,5,1,1,1,666.6828035
2,1,2,17,2,1,1,0,10,2,2,1,587.9794545
2,1,2,18,2,1,1,1,6,2,2,1,848.8751559
2,1,2,19,1,2,0,0,3,1,1,1,770.7658804
2,1,2,20,1,2,1,1,8,2,2,1,880.2257543
2,1,2,21,1,4,0,1,10,2,2,1,834.2041387
2,1,2,22,2,4,1,0,9,2,2,1,645.2785269
2,1,2,23,1,2,0,0,4,1,1,1,592.145663
2,1,2,24,1,3,0,1,3,1,1,1,779.9270505
2,1,2,25,2,4,0,0,7,2,2,1,585.9721727
2,1,2,26,1,2,0,0,5,1,1,1,918.4551653
2,1,2,27,2,2,1,0,2,1,1,1,982.3146935
2,1,2,28,2,2,1,1,1,1,1,1,699.0186085
2,1,2,29,1,1,0,0,2,1,1,1,707.6815651
2,1,2,30,1,3,0,1,3,1,2,0,955.6400587
2,1,2,31,1,1,0,1,6,2,2,1,721.8062782
2,1,2,32,2,1,1,0,8,2,2,1,705.3148896
2,1,2,33,2,1,1,1,4,1,1,1,928.5124152
2,1,2,34,1,4,0,0,6,2,2,1,728.4548993
2,1,2,35,1,4,1,1,1,1,1,1,903.6940595
2,1,2,36,1,3,0,1,5,1,1,1,1480.397019
2,1,2,37,2,3,1,0,9,2,2,1,913.9391815
2,1,2,38,2,3,1,1,10,2,2,1,665.9165674
2,1,2,39,1,2,0,0,8,2,2,1,715.0938576
2,1,2,40,2,2,1,0,2,1,1,1,762.7951012
2,1,2,41,2,4,0,1,7,2,2,1,1320.898721
2,1,2,42,1,3,0,0,6,2,2,1,752.3489625
2,1,2,43,1,3,1,1,3,1,1,1,678.41359
2,1,2,44,1,4,0,1,7,2,2,1,719.5707283
2,1,2,45,2,4,1,0,8,2,2,1,679.3330731
2,1,2,46,1,1,0,0,4,1,1,1,704.7291514
2,1,2,47,1,1,1,1,9,2,2,1,936.703447
2,1,2,48,2,2,0,0,1,1,1,1,719.7752716
2,1,3,1,2,3,99,99,2,1,1,1,1108.502239
2,1,3,2,2,3,1,1,10,2,2,1,740.6896702
2,1,3,3,2,4,0,1,5,1,1,1,554.920374
2,1,3,4,1,4,1,0,2,1,1,1,505.290075
2,1,3,5,2,1,0,0,1,1,1,1,897.9325411
2,1,3,6,2,2,0,1,4,1,1,1,1105.177608
2,1,3,7,2,2,1,1,9,2,2,1,801.5079782
2,1,3,8,1,2,1,0,5,1,1,1,1021.867545
2,1,3,9,1,1,0,1,7,2,2,1,600.8240085
2,1,3,10,2,1,1,0,1,1,1,1,517.1987948
2,1,3,11,1,4,0,0,2,1,1,1,683.7413355
2,1,3,12,2,4,1,0,10,2,2,1,564.9019619
2,1,3,13,2,3,0,1,8,2,2,1,825.9287886
2,1,3,14,2,3,1,1,6,2,2,1,741.3061857
2,1,3,15,1,3,1,0,7,2,2,1,627.9022796
2,1,3,16,1,1,0,1,3,1,1,1,559.2885611
2,1,3,17,2,1,1,0,9,2,2,1,549.6352685
2,1,3,18,2,1,1,1,8,2,2,1,491.8386235
2,1,3,19,1,2,0,0,4,1,1,1,685.0875383
2,1,3,20,1,2,1,1,10,2,2,1,692.8864755
2,1,3,21,1,4,0,1,6,2,2,1,821.9097359
2,1,3,22,2,4,1,0,8,2,2,1,809.872776
2,1,3,23,1,2,0,0,2,1,1,1,877.0752095
2,1,3,24,1,3,0,1,1,1,1,1,1263.105603
2,1,3,25,2,4,0,0,7,2,2,1,841.2105504
2,1,3,26,1,2,0,0,4,1,1,1,796.2773747
2,1,3,27,2,2,1,0,3,1,1,1,1001.007649
2,1,3,28,2,2,1,1,5,1,1,1,772.8347178
2,1,3,29,1,1,0,0,4,1,1,1,681.8295924
2,1,3,30,1,3,0,1,1,1,1,1,995.4327198
2,1,3,31,1,1,0,1,10,2,2,1,552.3071561
2,1,3,32,2,1,1,0,9,2,2,1,541.6683364
2,1,3,33,2,1,1,1,2,1,1,1,620.0709618
2,1,3,34,1,4,0,0,10,2,2,1,1095.12677
2,1,3,35,1,4,1,1,3,1,1,1,727.4023665
2,1,3,36,1,3,0,1,5,1,1,1,943.0250551
2,1,3,37,2,3,1,0,7,2,2,1,605.8917467
2,1,3,38,2,3,1,1,8,2,2,1,522.0042814
2,1,3,39,1,2,0,0,6,2,2,1,969.9074393
2,1,3,40,2,2,1,0,1,1,1,1,623.6770805
2,1,3,41,2,4,0,1,9,2,2,1,530.7874631
2,1,3,42,1,3,0,0,10,2,2,1,738.2672098
2,1,3,43,1,3,1,1,3,1,1,1,649.8137468
2,1,3,44,1,4,0,1,9,2,2,1,771.9040136
2,1,3,45,2,4,1,0,8,2,2,1,601.1616013
2,1,3,46,1,1,0,0,2,1,1,1,757.4917213
2,1,3,47,1,1,1,1,7,2,2,1,1075.962852
2,1,3,48,2,2,0,0,4,1,1,1,717.2011673
2,1,4,1,2,3,99,99,2,1,1,1,1022.204817
2,1,4,2,2,3,1,1,10,2,2,1,794.2370709
2,1,4,3,2,4,0,1,3,1,1,1,710.6759774
2,1,4,4,1,4,1,0,1,1,1,1,638.6045783
2,1,4,5,2,1,0,0,5,1,1,1,649.1026541
2,1,4,6,2,2,0,1,4,1,1,1,683.3101271
2,1,4,7,2,2,1,1,6,2,2,1,548.839537
2,1,4,8,1,2,1,0,1,1,1,1,737.8751151
2,1,4,9,1,1,0,1,10,2,2,1,633.1700727
2,1,4,10,2,1,1,0,3,1,1,1,579.4546772
2,1,4,11,1,4,0,0,4,1,1,1,601.0827334
2,1,4,12,2,4,1,0,8,2,2,1,589.4753784
2,1,4,13,2,3,0,1,7,2,1,0,554.6497868
2,1,4,14,2,3,1,1,6,2,2,1,800.0184665
2,1,4,15,1,3,1,0,9,2,2,1,515.9891676
2,1,4,16,1,1,0,1,2,1,1,1,659.6129129
2,1,4,17,2,1,1,0,8,2,2,1,709.7045567
2,1,4,18,2,1,1,1,10,2,2,1,613.745827
2,1,4,19,1,2,0,0,5,1,1,1,1057.957907
2,1,4,20,1,2,1,1,7,2,2,1,1260.699493
2,1,4,21,1,4,0,1,10,2,2,1,575.1207946
2,1,4,22,2,4,1,0,7,2,2,1,883.8681008
2,1,4,23,1,2,0,0,4,1,1,1,732.353406
2,1,4,24,1,3,0,1,3,1,1,1,1107.170784
2,1,4,25,2,4,0,0,6,2,2,1,723.6567866
2,1,4,26,1,2,0,0,1,1,1,1,1195.454328
2,1,4,27,2,2,1,0,5,1,1,1,936.3892581
2,1,4,28,2,2,1,1,2,1,1,1,767.2145844
2,1,4,29,1,1,0,0,3,1,1,1,580.2984987
2,1,4,30,1,3,0,1,4,1,1,1,865.4569541
2,1,4,31,1,1,0,1,9,2,2,1,666.9745503
2,1,4,32,2,1,1,0,8,2,2,1,508.8381649
2,1,4,33,2,1,1,1,2,1,1,1,868.9107874
2,1,4,34,1,4,0,0,10,2,2,1,958.3760668
2,1,4,35,1,4,1,1,5,1,1,1,667.9825196
2,1,4,36,1,3,0,1,1,1,1,1,637.9245836
2,1,4,37,2,3,1,0,9,2,2,1,728.0435683
2,1,4,38,2,3,1,1,7,2,2,1,535.5993619
2,1,4,39,1,2,0,0,6,2,2,1,966.7312463
2,1,4,40,2,2,1,0,3,1,1,1,675.4326429
2,1,4,41,2,4,0,1,8,2,2,1,516.91891
2,1,4,42,1,3,0,0,7,2,2,1,708.3865663
2,1,4,43,1,3,1,1,4,1,1,1,1147.610738
2,1,4,44,1,4,0,1,9,2,2,1,1161.497245
2,1,4,45,2,4,1,0,6,2,2,1,712.0930334
2,1,4,46,1,1,0,0,2,1,1,1,687.9485806
2,1,4,47,1,1,1,1,8,2,2,1,560.8521316
2,1,4,48,2,2,0,0,1,1,1,1,735.5796129
2,1,5,1,2,3,99,99,2,1,1,1,628.9660335
2,1,5,2,2,3,1,1,10,2,2,1,832.6905819
2,1,5,3,2,4,0,1,1,1,1,1,707.2638222
2,1,5,4,1,4,1,0,2,1,1,1,851.1636048
2,1,5,5,2,1,0,0,4,1,1,1,941.1434487
2,1,5,6,2,2,0,1,3,1,1,1,796.579381
2,1,5,7,2,2,1,1,8,2,2,1,592.3761751
2,1,5,8,1,2,1,0,1,1,1,1,717.4852195
2,1,5,9,1,1,0,1,7,2,2,1,573.1741057
2,1,5,10,2,1,1,0,3,1,1,1,641.6961327
2,1,5,11,1,4,0,0,5,1,1,1,732.0578119
2,1,5,12,2,4,1,0,9,2,2,1,939.2945434
2,1,5,13,2,3,0,1,10,2,2,1,1009.644316
2,1,5,14,2,3,1,1,9,2,2,1,725.095964
2,1,5,15,1,3,1,0,7,2,2,1,939.9678053
2,1,5,16,1,1,0,1,4,1,1,1,978.8287999
2,1,5,17,2,1,1,0,6,2,2,1,1015.658468
2,1,5,18,2,1,1,1,8,2,2,1,587.3219022
2,1,5,19,1,2,0,0,2,1,1,1,751.9248074
2,1,5,20,1,2,1,1,10,2,2,1,662.171308
2,1,5,21,1,4,0,1,6,2,2,1,1152.87789
2,1,5,22,2,4,1,0,9,2,2,1,855.1688718
2,1,5,23,1,2,0,0,5,1,1,1,1248.336162
2,1,5,24,1,3,0,1,1,1,1,1,883.0409509
2,1,5,25,2,4,0,0,8,2,2,1,571.1068714
2,1,5,26,1,2,0,0,3,1,1,1,976.0729149
2,1,5,27,2,2,1,0,4,1,1,1,1197.092599
2,1,5,28,2,2,1,1,2,1,1,1,777.1214719
2,1,5,29,1,1,0,0,3,1,1,1,734.9547616
2,1,5,30,1,3,0,1,5,1,1,1,1173.431933
2,1,5,31,1,1,0,1,7,2,2,1,627.047237
2,1,5,32,2,1,1,0,10,2,2,1,1367.104682
2,1,5,33,2,1,1,1,4,1,1,1,900.2280436
2,1,5,34,1,4,0,0,9,2,2,1,532.1115446
2,1,5,35,1,4,1,1,2,1,1,1,1283.271399
2,1,5,36,1,3,0,1,1,1,1,1,1123.858701
2,1,5,37,2,3,1,0,8,2,2,1,867.5812555
2,1,5,38,2,3,1,1,10,2,2,1,804.2689932
2,1,5,39,1,2,0,0,7,2,2,1,840.5039462
2,1,5,40,2,2,1,0,2,1,1,1,1227.490051
2,1,5,41,2,4,0,1,6,2,2,1,750.7706443
2,1,5,42,1,3,0,0,10,2,2,1,763.9255398
2,1,5,43,1,3,1,1,4,1,1,1,1042.606254
2,1,5,44,1,4,0,1,7,2,2,1,1212.482403
2,1,5,45,2,4,1,0,8,2,2,1,817.204277
2,1,5,46,1,1,0,0,3,1,1,1,843.6714828
2,1,5,47,1,1,1,1,9,2,2,1,813.9748641
2,1,5,48,2,2,0,0,5,1,1,1,905.5157139
2,1,6,1,2,3,99,99,2,1,1,1,889.0038065
2,1,6,2,2,3,1,1,10,2,2,1,625.9238515
2,1,6,3,2,4,0,1,1,1,1,1,837.9750464
2,1,6,4,1,4,1,0,2,1,1,1,703.8689794
2,1,6,5,2,1,0,0,4,1,1,1,879.976968
2,1,6,6,2,2,0,1,3,1,1,1,680.737305
2,1,6,7,2,2,1,1,6,2,2,1,865.140521
2,1,6,8,1,2,1,0,5,1,1,1,866.601499
2,1,6,9,1,1,0,1,9,2,2,1,1612.375579
2,1,6,10,2,1,1,0,4,1,1,1,1713.006746
2,1,6,11,1,4,0,0,1,1,1,1,857.3473548
2,1,6,12,2,4,1,0,7,2,2,1,994.4193005
2,1,6,13,2,3,0,1,10,2,2,1,695.8385685
2,1,6,14,2,3,1,1,9,2,2,1,952.136853
2,1,6,15,1,3,1,0,6,2,2,1,989.8116244
2,1,6,16,1,1,0,1,3,1,2,0,658.1929715
2,1,6,17,2,1,1,0,8,2,2,1,1923.679036
2,1,6,18,2,1,1,1,7,2,2,1,1091.537002
2,1,6,19,1,2,0,0,2,1,1,1,1067.578178
2,1,6,20,1,2,1,1,10,2,2,1,949.1725774
2,1,6,21,1,4,0,1,8,2,2,1,1083.951265
2,1,6,22,2,4,1,0,7,2,2,1,1372.015967
2,1,6,23,1,2,0,0,1,1,1,1,881.8271556
2,1,6,24,1,3,0,1,3,1,1,1,850.4723895
2,1,6,25,2,4,0,0,6,2,2,1,788.5021623
2,1,6,26,1,2,0,0,4,1,2,0,945.8969978
2,1,6,27,2,2,1,0,2,1,1,1,1087.537186
2,1,6,28,2,2,1,1,5,1,1,1,680.3000057
2,1,6,29,1,1,0,0,1,1,1,1,849.2659682
2,1,6,30,1,3,0,1,4,1,1,1,971.8057171
2,1,6,31,1,1,0,1,10,2,2,1,544.8259346
2,1,6,32,2,1,1,0,9,2,2,1,1479.390653
2,1,6,33,2,1,1,1,5,1,1,1,777.3731439
2,1,6,34,1,4,0,0,6,2,2,1,797.8274801
2,1,6,35,1,4,1,1,2,1,1,1,626.5163219
2,1,6,36,1,3,0,1,3,1,1,1,772.3602285
2,1,6,37,2,3,1,0,10,2,2,1,746.1203285
2,1,6,38,2,3,1,1,8,2,2,1,592.342512
2,1,6,39,1,2,0,0,7,2,2,1,1077.245897
2,1,6,40,2,2,1,0,2,1,1,1,821.6064477
2,1,6,41,2,4,0,1,9,2,2,1,680.6299037
2,1,6,42,1,3,0,0,7,2,2,1,857.1152396
2,1,6,43,1,3,1,1,5,1,1,1,979.4841083
2,1,6,44,1,4,0,1,9,2,2,1,544.693847
2,1,6,45,2,4,1,0,8,2,2,1,503.5450442
2,1,6,46,1,1,0,0,1,1,1,1,591.7086841
2,1,6,47,1,1,1,1,6,2,2,1,540.2580132
2,1,6,48,2,2,0,0,4,1,1,1,754.9365324
2,1,7,1,2,3,99,99,2,1,1,1,822.7929915
2,1,7,2,2,3,1,1,10,2,2,1,666.5093587
2,1,7,3,2,4,0,1,5,1,1,1,587.7749112
2,1,7,4,1,4,1,0,4,1,1,1,648.863486
2,1,7,5,2,1,0,0,2,1,1,1,731.2765077
2,1,7,6,2,2,0,1,1,1,1,1,714.1118571
2,1,7,7,2,2,1,1,7,2,2,1,585.7012647
2,1,7,8,1,2,1,0,5,1,1,1,884.9664796
2,1,7,9,1,1,0,1,6,2,2,1,716.8562005
2,1,7,10,2,1,1,0,3,1,1,1,884.4653803
2,1,7,11,1,4,0,0,4,1,1,1,708.8549645
2,1,7,12,2,4,1,0,8,2,2,1,693.5879502
2,1,7,13,2,3,0,1,9,2,2,1,901.3777182
2,1,7,14,2,3,1,1,6,2,2,1,612.259842
2,1,7,15,1,3,1,0,8,2,2,1,632.5910676
2,1,7,16,1,1,0,1,1,1,1,1,571.6964563
2,1,7,17,2,1,1,0,10,2,2,1,560.9447851
2,1,7,18,2,1,1,1,9,2,2,1,847.4856715
2,1,7,19,1,2,0,0,2,1,1,1,585.913182
2,1,7,20,1,2,1,1,7,2,2,1,510.9086055
2,1,7,21,1,4,0,1,8,2,2,1,1023.213748
2,1,7,22,2,4,1,0,9,2,2,1,697.6938858
2,1,7,23,1,2,0,0,5,1,1,1,649.6492787
2,1,7,24,1,3,0,1,2,1,1,1,1396.280324
2,1,7,25,2,4,0,0,7,2,2,1,648.640027
2,1,7,26,1,2,0,0,1,1,1,1,610.8312444
2,1,7,27,2,2,1,0,3,1,1,1,638.0922582
2,1,7,28,2,2,1,1,4,1,1,1,688.6026065
2,1,7,29,1,1,0,0,5,1,1,1,768.4213261
2,1,7,30,1,3,0,1,1,1,1,1,733.7573173
2,1,7,31,1,1,0,1,10,2,2,1,451.5875033
2,1,7,32,2,1,1,0,6,2,2,1,637.4250876
2,1,7,33,2,1,1,1,2,1,1,1,639.6994302
2,1,7,34,1,4,0,0,7,2,2,1,865.9987694
2,1,7,35,1,4,1,1,3,1,1,1,626.7442692
2,1,7,36,1,3,0,1,4,1,1,1,749.4087319
2,1,7,37,2,3,1,0,10,2,2,1,811.4385905
2,1,7,38,2,3,1,1,8,2,2,1,991.8384631
2,1,7,39,1,2,0,0,6,2,2,1,755.8502448
2,1,7,40,2,2,1,0,2,1,1,1,650.0692656
2,1,7,41,2,4,0,1,9,2,2,1,675.6564223
2,1,7,42,1,3,0,0,6,2,2,1,1076.586421
2,1,7,43,1,3,1,1,3,1,1,1,789.7233311
2,1,7,44,1,4,0,1,7,2,2,1,731.1072303
2,1,7,45,2,4,1,0,10,2,2,1,617.4154247
2,1,7,46,1,1,0,0,4,1,1,1,860.8637052
2,1,7,47,1,1,1,1,9,2,2,1,750.3307799
2,1,7,48,2,2,0,0,5,1,1,1,1188.785189
2,1,8,1,2,3,99,99,2,1,1,1,786.0655957
2,1,8,2,2,3,1,1,10,2,2,1,638.1005936
2,1,8,3,2,4,0,1,4,1,1,1,824.4787108
2,1,8,4,1,4,1,0,1,1,1,1,1123.615365
2,1,8,5,2,1,0,0,2,1,2,0,585.9987824
2,1,8,6,2,2,0,1,3,1,1,1,774.5172312
2,1,8,7,2,2,1,1,6,2,2,1,890.9187557
2,1,8,8,1,2,1,0,2,1,1,1,907.8359024
2,1,8,9,1,1,0,1,8,2,2,1,620.5579545
2,1,8,10,2,1,1,0,5,1,1,1,662.2601144
2,1,8,11,1,4,0,0,4,1,1,1,727.8380634
2,1,8,12,2,4,1,0,7,2,2,1,782.7419264
2,1,8,13,2,3,0,1,10,2,2,1,1004.234497
2,1,8,14,2,3,1,1,7,2,2,1,647.682392
2,1,8,15,1,3,1,0,9,2,2,1,889.8226211
2,1,8,16,1,1,0,1,3,1,1,1,1025.806127
2,1,8,17,2,1,1,0,8,2,2,1,1028.031097
2,1,8,18,2,1,1,1,10,2,2,1,807.1710723
2,1,8,19,1,2,0,0,1,1,1,1,923.1269616
2,1,8,20,1,2,1,1,6,2,2,1,1274.119847
2,1,8,21,1,4,0,1,9,2,2,1,971.471651
2,1,8,22,2,4,1,0,10,2,2,1,664.3074716
2,1,8,23,1,2,0,0,4,1,1,1,1065.252218
2,1,8,24,1,3,0,1,2,1,1,1,1794.068435
2,1,8,25,2,4,0,0,8,2,2,1,734.0718268
2,1,8,26,1,2,0,0,3,1,1,1,819.2147652
2,1,8,27,2,2,1,0,1,1,1,1,870.085469
2,1,8,28,2,2,1,1,5,1,1,1,1471.03387
2,1,8,29,1,1,0,0,2,1,1,1,1080.374962
2,1,8,30,1,3,0,1,3,1,1,1,953.4106003
2,1,8,31,1,1,0,1,7,2,2,1,798.9447743
2,1,8,32,2,1,1,0,6,2,2,1,658.4811918
2,1,8,33,2,1,1,1,5,1,1,1,1315.694407
2,1,8,34,1,4,0,0,10,2,2,1,1082.730417
2,1,8,35,1,4,1,1,1,1,1,1,658.4904892
2,1,8,36,1,3,0,1,4,1,1,1,1108.158876
2,1,8,37,2,3,1,0,9,2,2,1,1339.6683
2,1,8,38,2,3,1,1,7,2,2,1,1737.731165
2,1,8,39,1,2,0,0,6,2,2,1,1528.215923
2,1,8,40,2,2,1,0,5,1,1,1,1959.649173
2,1,8,41,2,4,0,1,8,2,2,1,637.2574132
2,1,8,42,1,3,0,0,6,2,2,1,1191.187772
2,1,8,43,1,3,1,1,4,1,1,1,747.8464437
2,1,8,44,1,4,0,1,9,2,2,1,752.9924084
2,1,8,45,2,4,1,0,10,2,2,1,590.9103879
2,1,8,46,1,1,0,0,2,1,1,1,811.1356227
2,1,8,47,1,1,1,1,8,2,2,1,534.3095844
2,1,8,48,2,2,0,0,1,1,1,1,732.6685567
2,1,9,1,2,3,99,99,2,1,1,1,980.2590006
2,1,9,2,2,3,1,1,10,2,2,1,841.3275699
2,1,9,3,2,4,0,1,3,1,1,1,915.2388973
2,1,9,4,1,4,1,0,5,1,1,1,1777.96337
2,1,9,5,2,1,0,0,4,1,1,1,991.2459927
2,1,9,6,2,2,0,1,1,1,1,1,995.2419624
2,1,9,7,2,2,1,1,10,2,2,1,1071.508103
2,1,9,8,1,2,1,0,5,1,1,1,704.6903588
2,1,9,9,1,1,0,1,8,2,2,1,592.3556567
2,1,9,10,2,1,1,0,3,1,1,1,564.5778344
2,1,9,11,1,4,0,0,4,1,1,1,578.300514
2,1,9,12,2,4,1,0,9,2,2,1,710.5807588
2,1,9,13,2,3,0,1,6,2,2,1,1102.599656
2,1,9,14,2,3,1,1,10,2,2,1,686.2009855
2,1,9,15,1,3,1,0,7,2,2,1,510.4761147
2,1,9,16,1,1,0,1,2,1,1,1,557.855475
2,1,9,17,2,1,1,0,9,2,2,1,515.0940497
2,1,9,18,2,1,1,1,8,2,2,1,522.006846
2,1,9,19,1,2,0,0,1,1,1,1,569.294835
2,1,9,20,1,2,1,1,6,2,2,1,1126.269299
2,1,9,21,1,4,0,1,9,2,2,1,588.6828532
2,1,9,22,2,4,1,0,8,2,2,1,681.3137454
2,1,9,23,1,2,0,0,5,1,1,1,697.1572
2,1,9,24,1,3,0,1,2,1,1,1,897.334941
2,1,9,25,2,4,0,0,6,2,2,1,585.5335905
2,1,9,26,1,2,0,0,3,1,1,1,725.9154199
2,1,9,27,2,2,1,0,4,1,1,1,981.2426041
2,1,9,28,2,2,1,1,1,1,1,1,609.4997888
2,1,9,29,1,1,0,0,3,1,1,1,844.9272765
2,1,9,30,1,3,0,1,2,1,1,1,982.8593943
2,1,9,31,1,1,0,1,10,2,2,1,771.2846124
2,1,9,32,2,1,1,0,7,2,2,1,535.9603583
2,1,9,33,2,1,1,1,5,1,1,1,581.588276
2,1,9,34,1,4,0,0,9,2,2,1,785.7744899
2,1,9,35,1,4,1,1,1,1,1,1,702.0556608
2,1,9,36,1,3,0,1,4,1,1,1,1077.93551
2,1,9,37,2,3,1,0,7,2,2,1,662.7878235
2,1,9,38,2,3,1,1,6,2,2,1,864.4041007
2,1,9,39,1,2,0,0,8,2,2,1,833.7027191
2,1,9,40,2,2,1,0,3,1,1,1,915.9682645
2,1,9,41,2,4,0,1,10,2,2,1,770.9444549
2,1,9,42,1,3,0,0,6,2,2,1,1247.835383
2,1,9,43,1,3,1,1,1,1,1,1,1265.482859
2,1,9,44,1,4,0,1,8,2,2,1,1066.95525
2,1,9,45,2,4,1,0,7,2,2,1,1155.105745
2,1,9,46,1,1,0,0,2,1,1,1,944.2500714
2,1,9,47,1,1,1,1,9,2,2,1,1774.455996
2,1,9,48,2,2,0,0,5,1,1,1,905.7709121
2,1,10,1,2,3,99,99,2,1,1,1,752.8494205
2,1,10,2,2,3,1,1,10,2,1,0,534.7055264
2,1,10,3,2,4,0,1,3,1,1,1,853.0420056
2,1,10,4,1,4,1,0,4,1,1,1,733.7156392
2,1,10,5,2,1,0,0,1,1,1,1,595.4747826
2,1,10,6,2,2,0,1,2,1,1,1,631.7841152
2,1,10,7,2,2,1,1,9,2,2,1,649.972765
2,1,10,8,1,2,1,0,3,1,1,1,755.3664581
2,1,10,9,1,1,0,1,8,2,2,1,464.5635034
2,1,10,10,2,1,1,0,1,1,1,1,561.8120106
2,1,10,11,1,4,0,0,4,1,1,1,638.3900961
2,1,10,12,2,4,1,0,6,2,2,1,672.5626236
2,1,10,13,2,3,0,1,7,2,2,1,1113.440455
2,1,10,14,2,3,1,1,8,2,2,1,672.4029644
2,1,10,15,1,3,1,0,10,2,2,1,657.4892527
2,1,10,16,1,1,0,1,5,1,1,1,659.2204976
2,1,10,17,2,1,1,0,6,2,2,1,532.3895055
2,1,10,18,2,1,1,1,9,2,2,1,635.0991281
2,1,10,19,1,2,0,0,2,1,1,1,788.3479532
2,1,10,20,1,2,1,1,7,2,2,1,704.4563203
2,1,10,21,1,4,0,1,9,2,2,1,1112.124388
2,1,10,22,2,4,1,0,7,2,2,1,623.7860848
2,1,10,23,1,2,0,0,1,1,1,1,570.3024839
2,1,10,24,1,3,0,1,4,1,1,1,903.0935741
2,1,10,25,2,4,0,0,8,2,2,1,534.6824434
2,1,10,26,1,2,0,0,3,1,1,1,740.1565111
2,1,10,27,2,2,1,0,5,1,1,1,858.6066749
2,1,10,28,2,2,1,1,2,1,1,1,764.1223886
2,1,10,29,1,1,0,0,3,1,1,1,897.3679629
2,1,10,30,1,3,0,1,4,1,1,1,785.6523411
2,1,10,31,1,1,0,1,6,2,2,1,1237.746073
2,1,10,32,2,1,1,0,10,2,2,1,816.594494
2,1,10,33,2,1,1,1,2,1,1,1,1035.305852
2,1,10,34,1,4,0,0,8,2,2,1,501.5326326
2,1,10,35,1,4,1,1,5,1,1,1,621.2927718
2,1,10,36,1,3,0,1,1,1,1,1,575.5965663
2,1,10,37,2,3,1,0,6,2,2,1,692.5806224
2,1,10,38,2,3,1,1,7,2,2,1,524.7941501
2,1,10,39,1,2,0,0,9,2,2,1,1052.193503
2,1,10,40,2,2,1,0,4,1,1,1,804.7556654
2,1,10,41,2,4,0,1,10,2,2,1,736.4234342
2,1,10,42,1,3,0,0,7,2,2,1,598.4281581
2,1,10,43,1,3,1,1,2,1,1,1,761.8425959
2,1,10,44,1,4,0,1,6,2,2,1,814.6782625
2,1,10,45,2,4,1,0,9,2,2,1,625.4996965
2,1,10,46,1,1,0,0,5,1,1,1,628.4485834
2,1,10,47,1,1,1,1,10,2,2,1,878.8795513
2,1,10,48,2,2,0,0,1,1,1,1,783.7409184
3,1,1,1,2,2,99,99,4,1,1,1,1766.28388
3,1,1,2,1,2,1,0,2,1,1,1,1137.706736
3,1,1,3,1,1,0,1,9,2,2,1,1040.846476
3,1,1,4,2,3,0,0,1,1,1,1,795.4014933
3,1,1,5,2,3,1,1,5,1,1,1,1024.74077
3,1,1,6,1,4,0,0,8,2,2,1,724.0039974
3,1,1,7,2,1,0,0,3,1,1,1,755.8496036
3,1,1,8,2,4,0,1,7,2,1,0,761.7467362
3,1,1,9,1,4,1,0,4,1,1,1,832.1170269
3,1,1,10,1,4,1,1,5,1,1,1,979.0480912
3,1,1,11,1,3,0,1,10,2,2,1,728.5446676
3,1,1,12,2,3,1,0,6,2,2,1,743.7302489
3,1,1,13,2,3,1,1,10,2,2,1,695.0210361
3,1,1,14,1,1,0,0,9,2,2,1,847.8239055
3,1,1,15,1,2,0,1,3,1,1,1,681.9023686
3,1,1,16,1,2,1,1,7,2,2,1,891.020386
3,1,1,17,2,2,1,0,6,2,2,1,923.8079176
3,1,1,18,1,1,0,0,1,1,1,1,715.600407
3,1,1,19,1,1,1,1,8,2,2,1,771.4192648
3,1,1,20,2,4,0,0,2,1,1,1,887.7861644
3,1,1,21,1,4,1,0,3,1,1,1,800.9911696
3,1,1,22,2,4,1,0,2,1,1,1,652.9315906
3,1,1,23,2,2,0,1,5,1,2,0,854.9588781
3,1,1,24,1,2,1,0,9,2,2,1,969.1819195
3,1,1,25,1,3,0,1,10,2,2,1,718.6307264
3,1,1,26,1,3,1,1,8,2,2,1,622.5431152
3,1,1,27,2,1,0,0,7,2,2,1,658.2125281
3,1,1,28,2,1,1,1,4,1,1,1,731.995936
3,1,1,29,1,1,1,0,6,2,2,1,763.2625371
3,1,1,30,2,4,0,0,9,2,2,1,1441.558146
3,1,1,31,2,4,1,1,1,1,1,1,699.4559083
3,1,1,32,2,4,1,1,3,1,1,1,1100.379816
3,1,1,33,1,3,0,0,5,1,1,1,852.3424543
3,1,1,34,1,2,0,1,4,1,1,1,839.0051369
3,1,1,35,2,2,1,0,2,1,1,1,665.5626239
3,1,1,36,2,3,0,1,8,2,2,1,635.0609765
3,1,1,37,1,3,1,0,1,1,1,1,829.9619481
3,1,1,38,2,1,0,0,6,2,2,1,801.7182925
3,1,1,39,2,1,1,1,7,2,2,1,773.5310628
3,1,1,40,2,1,1,1,10,2,2,1,683.6313691
3,1,1,41,1,2,0,0,5,1,1,1,955.9850255
3,1,1,42,1,3,0,1,6,2,2,1,890.7401809
3,1,1,43,2,3,1,0,3,1,1,1,755.3481839
3,1,1,44,2,2,0,1,4,1,1,1,849.3246383
3,1,1,45,2,2,1,1,8,2,2,1,731.9311749
3,1,1,46,1,4,0,0,7,2,2,1,970.8721275
3,1,1,47,1,1,0,1,1,1,1,1,1024.58624
3,1,1,48,1,4,0,1,9,2,2,1,1308.14586
3,1,2,1,2,2,99,99,4,1,1,1,750.2031808
3,1,2,2,1,2,1,0,4,1,1,1,836.3742861
3,1,2,3,1,1,0,1,9,2,2,1,550.8118735
3,1,2,4,2,3,0,0,5,1,1,1,845.3206536
3,1,2,5,2,3,1,1,1,1,1,1,1448.493064
3,1,2,6,1,4,0,0,9,2,2,1,922.4293339
3,1,2,7,2,1,0,0,2,1,1,1,754.0180106
3,1,2,8,2,4,0,1,6,2,2,1,696.1755201
3,1,2,9,1,4,1,0,3,1,1,1,897.1073143
3,1,2,10,1,4,1,1,5,1,1,1,634.4822922
3,1,2,11,1,3,0,1,7,2,2,1,693.201947
3,1,2,12,2,3,1,0,10,2,2,1,910.146473
3,1,2,13,2,3,1,1,7,2,2,1,1238.494355
3,1,2,14,1,1,0,0,10,2,2,1,1121.488499
3,1,2,15,1,2,0,1,4,1,1,1,752.6862347
3,1,2,16,1,2,1,1,6,2,2,1,823.0590904
3,1,2,17,2,2,1,0,8,2,2,1,898.8058579
3,1,2,18,1,1,0,0,1,1,1,1,818.7534204
3,1,2,19,1,1,1,1,9,2,2,1,798.2727948
3,1,2,20,2,4,0,0,2,1,2,0,730.5160426
3,1,2,21,1,4,1,0,1,1,1,1,769.4709732
3,1,2,22,2,4,1,0,3,1,1,1,558.9435943
3,1,2,23,2,2,0,1,4,1,1,1,1109.340611
3,1,2,24,1,2,1,0,10,2,2,1,645.5436638
3,1,2,25,1,3,0,1,6,2,2,1,712.0808503
3,1,2,26,1,3,1,1,7,2,2,1,888.7957365
3,1,2,27,2,1,0,0,8,2,2,1,585.2739038
3,1,2,28,2,1,1,1,5,1,1,1,726.6037499
3,1,2,29,1,1,1,0,9,2,2,1,822.1062643
3,1,2,30,2,4,0,0,7,2,2,1,1713.169611
3,1,2,31,2,4,1,1,2,1,1,1,713.3420941
3,1,2,32,2,4,1,1,1,1,1,1,1497.186246
3,1,2,33,1,3,0,0,2,1,1,1,937.8502364
3,1,2,34,1,2,0,1,4,1,1,1,1161.070204
3,1,2,35,2,2,1,0,3,1,1,1,630.7075373
3,1,2,36,2,3,0,1,6,2,1,0,698.3087983
3,1,2,37,1,3,1,0,5,1,1,1,1226.030355
3,1,2,38,2,1,0,0,8,2,2,1,861.6703372
3,1,2,39,2,1,1,1,9,2,2,1,1183.991564
3,1,2,40,2,1,1,1,10,2,2,1,900.9029083
3,1,2,41,1,2,0,0,1,1,1,1,780.7965202
3,1,2,42,1,3,0,1,9,2,2,1,1322.55238
3,1,2,43,2,3,1,0,2,1,1,1,769.7787499
3,1,2,44,2,2,0,1,4,1,1,1,1223.118017
3,1,2,45,2,2,1,1,10,2,2,1,698.5094945
3,1,2,46,1,4,0,0,8,2,2,1,731.127749
3,1,2,47,1,1,0,1,3,1,1,1,857.8821169
3,1,2,48,1,4,0,1,7,2,2,1,1132.326732
3,1,3,1,2,2,99,99,4,1,1,1,734.9711121
3,1,3,2,1,2,1,0,1,1,1,1,925.3621909
3,1,3,3,1,1,0,1,9,2,2,1,693.3991164
3,1,3,4,2,3,0,0,2,1,1,1,949.0360012
3,1,3,5,2,3,1,1,3,1,1,1,1755.22892
3,1,3,6,1,4,0,0,8,2,2,1,673.2217793
3,1,3,7,2,1,0,0,5,1,1,1,1475.132112
3,1,3,8,2,4,0,1,10,2,2,1,972.9201258
3,1,3,9,1,4,1,0,2,1,1,1,849.8696599
3,1,3,10,1,4,1,1,4,1,1,1,956.6124412
3,1,3,11,1,3,0,1,6,2,2,1,1146.89676
3,1,3,12,2,3,1,0,7,2,2,1,753.7705069
3,1,3,13,2,3,1,1,6,2,2,1,487.5361598
3,1,3,14,1,1,0,0,9,2,2,1,1057.089079
3,1,3,15,1,2,0,1,3,1,2,0,626.7910767
3,1,3,16,1,2,1,1,7,2,2,1,917.8453824
3,1,3,17,2,2,1,0,10,2,2,1,685.3889034
3,1,3,18,1,1,0,0,1,1,1,1,558.4415335
3,1,3,19,1,1,1,1,8,2,2,1,644.595647
3,1,3,20,2,4,0,0,5,1,1,1,727.2552107
3,1,3,21,1,4,1,0,3,1,1,1,1071.126268
3,1,3,22,2,4,1,0,4,1,1,1,664.7149553
3,1,3,23,2,2,0,1,2,1,1,1,770.0496577
3,1,3,24,1,2,1,0,10,2,2,1,623.3375643
3,1,3,25,1,3,0,1,7,2,2,1,707.2859437
3,1,3,26,1,3,1,1,9,2,2,1,915.5293617
3,1,3,27,2,1,0,0,6,2,2,1,635.0548852
3,1,3,28,2,1,1,1,1,1,1,1,686.0252961
3,1,3,29,1,1,1,0,8,2,2,1,798.8508381
3,1,3,30,2,4,0,0,10,2,2,1,762.985538
3,1,3,31,2,4,1,1,5,1,1,1,761.5290482
3,1,3,32,2,4,1,1,4,1,1,1,678.4511001
3,1,3,33,1,3,0,0,3,1,1,1,1240.493302
3,1,3,34,1,2,0,1,2,1,1,1,1051.479525
3,1,3,35,2,2,1,0,5,1,1,1,829.7298329
3,1,3,36,2,3,0,1,9,2,2,1,961.3275186
3,1,3,37,1,3,1,0,1,1,1,1,831.3866982
3,1,3,38,2,1,0,0,8,2,2,1,674.5166862
3,1,3,39,2,1,1,1,7,2,1,0,843.7397708
3,1,3,40,2,1,1,1,6,2,2,1,741.741241
3,1,3,41,1,2,0,0,3,1,1,1,772.8860138
3,1,3,42,1,3,0,1,8,2,2,1,946.5122311
3,1,3,43,2,3,1,0,5,1,1,1,865.386422
3,1,3,44,2,2,0,1,2,1,1,1,1026.844874
3,1,3,45,2,2,1,1,7,2,2,1,654.6163482
3,1,3,46,1,4,0,0,10,2,2,1,752.8038952
3,1,3,47,1,1,0,1,1,1,1,1,950.970507
3,1,3,48,1,4,0,1,9,2,2,1,1373.05792
3,1,4,1,2,2,99,99,4,1,1,1,987.2115515
3,1,4,2,1,2,1,0,3,1,1,1,1191.948878
3,1,4,3,1,1,0,1,9,2,2,1,1253.139404
3,1,4,4,2,3,0,0,5,1,1,1,807.1233027
3,1,4,5,2,3,1,1,1,1,1,1,1547.796622
3,1,4,6,1,4,0,0,8,2,2,1,2163.064983
3,1,4,7,2,1,0,0,2,1,1,1,777.172127
3,1,4,8,2,4,0,1,10,2,2,1,638.8011067
3,1,4,9,1,4,1,0,4,1,1,1,873.5761712
3,1,4,10,1,4,1,1,3,1,1,1,891.1835719
3,1,4,11,1,3,0,1,6,2,2,1,755.8592216
3,1,4,12,2,3,1,0,7,2,2,1,1170.287159
3,1,4,13,2,3,1,1,9,2,2,1,783.0468179
3,1,4,14,1,1,0,0,10,2,2,1,611.1883938
3,1,4,15,1,2,0,1,5,1,1,1,679.2253514
3,1,4,16,1,2,1,1,6,2,2,1,1096.355634
3,1,4,17,2,2,1,0,7,2,2,1,625.6901333
3,1,4,18,1,1,0,0,1,1,1,1,829.2232833
3,1,4,19,1,1,1,1,8,2,2,1,792.8616931
3,1,4,20,2,4,0,0,2,1,1,1,893.8304528
3,1,4,21,1,4,1,0,3,1,1,1,822.6375002
3,1,4,22,2,4,1,0,1,1,1,1,1210.459091
3,1,4,23,2,2,0,1,5,1,1,1,789.8095727
3,1,4,24,1,2,1,0,6,2,2,1,610.6581199
3,1,4,25,1,3,0,1,9,2,2,1,790.8967303
3,1,4,26,1,3,1,1,7,2,2,1,628.005513
3,1,4,27,2,1,0,0,8,2,2,1,663.6887118
3,1,4,28,2,1,1,1,4,1,1,1,697.7044656
3,1,4,29,1,1,1,0,10,2,2,1,3530.949687
3,1,4,30,2,4,0,0,7,2,2,1,729.1813809
3,1,4,31,2,4,1,1,2,1,1,1,639.9690555
3,1,4,32,2,4,1,1,3,1,1,1,562.2954767
3,1,4,33,1,3,0,0,2,1,1,1,1047.846155
3,1,4,34,1,2,0,1,4,1,1,1,1017.896262
3,1,4,35,2,2,1,0,5,1,1,1,1717.484899
3,1,4,36,2,3,0,1,10,2,2,1,700.9864568
3,1,4,37,1,3,1,0,1,1,1,1,812.5850593
3,1,4,38,2,1,0,0,9,2,2,1,672.6062256
3,1,4,39,2,1,1,1,8,2,2,1,544.9634723
3,1,4,40,2,1,1,1,6,2,2,1,551.2296166
3,1,4,41,1,2,0,0,3,1,1,1,933.5317425
3,1,4,42,1,3,0,1,7,2,2,1,1460.136646
3,1,4,43,2,3,1,0,2,1,1,1,1045.784371
3,1,4,44,2,2,0,1,5,1,1,1,776.0141168
3,1,4,45,2,2,1,1,8,2,2,1,965.136257
3,1,4,46,1,4,0,0,10,2,2,1,1834.622523
3,1,4,47,1,1,0,1,1,1,1,1,772.5679779
3,1,4,48,1,4,0,1,9,2,2,1,1153.908622
3,1,5,1,2,2,99,99,4,1,1,1,1342.414567
3,1,5,2,1,2,1,0,4,1,1,1,2244.784866
3,1,5,3,1,1,0,1,9,2,2,1,3350.975572
3,1,5,4,2,3,0,0,3,1,1,1,684.899987
3,1,5,5,2,3,1,1,1,1,1,1,876.843415
3,1,5,6,1,4,0,0,7,2,2,1,1670.331242
3,1,5,7,2,1,0,0,2,1,1,1,1207.244426
3,1,5,8,2,4,0,1,10,2,2,1,1026.372308
3,1,5,9,1,4,1,0,5,1,1,1,1085.364153
3,1,5,10,1,4,1,1,3,1,1,1,1414.012118
3,1,5,11,1,3,0,1,6,2,2,1,1289.953683
3,1,5,12,2,3,1,0,9,2,2,1,938.3106194
3,1,5,13,2,3,1,1,10,2,2,1,569.0014854
3,1,5,14,1,1,0,0,9,2,2,1,789.7951456
3,1,5,15,1,2,0,1,2,1,1,1,1097.92209
3,1,5,16,1,2,1,1,6,2,2,1,1290.424645
3,1,5,17,2,2,1,0,7,2,2,1,642.6335694
3,1,5,18,1,1,0,0,4,1,1,1,693.5690348
3,1,5,19,1,1,1,1,8,2,2,1,710.1649395
3,1,5,20,2,4,0,0,1,1,1,1,1214.632994
3,1,5,21,1,4,1,0,2,1,1,1,897.9681279
3,1,5,22,2,4,1,0,4,1,1,1,610.4843542
3,1,5,23,2,2,0,1,5,1,1,1,1062.232158
3,1,5,24,1,2,1,0,10,2,2,1,687.7594264
3,1,5,25,1,3,0,1,7,2,2,1,688.5154031
3,1,5,26,1,3,1,1,9,2,2,1,737.1829378
3,1,5,27,2,1,0,0,6,2,2,1,608.5309328
3,1,5,28,2,1,1,1,3,1,1,1,612.205981
3,1,5,29,1,1,1,0,8,2,2,1,630.8187859
3,1,5,30,2,4,0,0,9,2,1,0,866.3270648
3,1,5,31,2,4,1,1,1,1,1,1,683.1331556
3,1,5,32,2,4,1,1,3,1,1,1,627.2585129
3,1,5,33,1,3,0,0,4,1,1,1,1134.64628
3,1,5,34,1,2,0,1,1,1,1,1,916.556567
3,1,5,35,2,2,1,0,2,1,1,1,770.9120743
3,1,5,36,2,3,0,1,8,2,2,1,664.3885835
3,1,5,37,1,3,1,0,5,1,1,1,1001.619996
3,1,5,38,2,1,0,0,10,2,2,1,726.0753997
3,1,5,39,2,1,1,1,6,2,2,1,725.4245798
3,1,5,40,2,1,1,1,7,2,2,1,629.3000993
3,1,5,41,1,2,0,0,4,1,1,1,792.808794
3,1,5,42,1,3,0,1,10,2,2,1,829.7923498
3,1,5,43,2,3,1,0,1,1,1,1,1064.966563
3,1,5,44,2,2,0,1,3,1,2,0,1042.928138
3,1,5,45,2,2,1,1,9,2,2,1,812.7828701
3,1,5,46,1,4,0,0,7,2,2,1,1425.296307
3,1,5,47,1,1,0,1,2,1,1,1,1492.039961
3,1,5,48,1,4,0,1,8,2,2,1,948.4746291
3,1,6,1,2,2,99,99,4,1,1,1,809.7929463
3,1,6,2,1,2,1,0,3,1,1,1,532.7694176
3,1,6,3,1,1,0,1,9,2,2,1,595.7264544
3,1,6,4,2,3,0,0,1,1,1,1,689.1014616
3,1,6,5,2,3,1,1,4,1,1,1,920.7737511
3,1,6,6,1,4,0,0,9,2,2,1,888.3093849
3,1,6,7,2,1,0,0,2,1,1,1,616.8861126
3,1,6,8,2,4,0,1,7,2,2,1,820.7045975
3,1,6,9,1,4,1,0,5,1,1,1,1023.230419
3,1,6,10,1,4,1,1,1,1,1,1,1170.645911
3,1,6,11,1,3,0,1,8,2,2,1,575.9553185
3,1,6,12,2,3,1,0,6,2,2,1,621.0340469
3,1,6,13,2,3,1,1,9,2,2,1,776.256491
3,1,6,14,1,1,0,0,10,2,2,1,517.7303511
3,1,6,15,1,2,0,1,4,1,1,1,573.6370536
3,1,6,16,1,2,1,1,8,2,1,0,602.1304571
3,1,6,17,2,2,1,0,7,2,2,1,606.2072178
3,1,6,18,1,1,0,0,2,1,1,1,1066.74718
3,1,6,19,1,1,1,1,6,2,2,1,675.9786261
3,1,6,20,2,4,0,0,3,1,1,1,717.1607714
3,1,6,21,1,4,1,0,5,1,1,1,772.4079979
3,1,6,22,2,4,1,0,1,1,1,1,857.3146532
3,1,6,23,2,2,0,1,3,1,1,1,699.6168499
3,1,6,24,1,2,1,0,9,2,2,1,780.1267849
3,1,6,25,1,3,0,1,10,2,2,1,601.3020244
3,1,6,26,1,3,1,1,7,2,2,1,1061.268111
3,1,6,27,2,1,0,0,8,2,2,1,687.2275495
3,1,6,28,2,1,1,1,2,1,1,1,744.505462
3,1,6,29,1,1,1,0,6,2,2,1,1023.116606
3,1,6,30,2,4,0,0,8,2,2,1,714.621292
3,1,6,31,2,4,1,1,4,1,1,1,745.8676952
3,1,6,32,2,4,1,1,3,1,1,1,1496.155835
3,1,6,33,1,3,0,0,4,1,2,0,961.1534323
3,1,6,34,1,2,0,1,5,1,1,1,758.8122762
3,1,6,35,2,2,1,0,2,1,1,1,1109.348946
3,1,6,36,2,3,0,1,10,2,2,1,837.3572484
3,1,6,37,1,3,1,0,1,1,1,1,887.8265601
3,1,6,38,2,1,0,0,7,2,2,1,624.0954648
3,1,6,39,2,1,1,1,9,2,2,1,610.9572407
3,1,6,40,2,1,1,1,6,2,2,1,646.8395325
3,1,6,41,1,2,0,0,4,1,1,1,737.9706539
3,1,6,42,1,3,0,1,8,2,2,1,809.0956395
3,1,6,43,2,3,1,0,5,1,1,1,917.3673666
3,1,6,44,2,2,0,1,1,1,2,0,747.934609
3,1,6,45,2,2,1,1,10,2,2,1,1065.207334
3,1,6,46,1,4,0,0,7,2,2,1,1634.727872
3,1,6,47,1,1,0,1,2,1,1,1,1076.939082
3,1,6,48,1,4,0,1,9,2,2,1,1301.405546
3,1,7,1,2,2,99,99,4,1,1,1,877.2056941
3,1,7,2,1,2,1,0,5,1,1,1,1358.175948
3,1,7,3,1,1,0,1,9,2,2,1,1419.205211
3,1,7,4,2,3,0,0,1,1,1,1,925.6911273
3,1,7,5,2,3,1,1,4,1,1,1,812.5783268
3,1,7,6,1,4,0,0,10,2,2,1,768.1590745
3,1,7,7,2,1,0,0,2,1,1,1,925.7485147
3,1,7,8,2,4,0,1,8,2,2,1,700.4215582
3,1,7,9,1,4,1,0,1,1,1,1,861.2054656
3,1,7,10,1,4,1,1,3,1,1,1,1510.94836
3,1,7,11,1,3,0,1,9,2,2,1,1191.235221
3,1,7,12,2,3,1,0,7,2,2,1,779.5699011
3,1,7,13,2,3,1,1,8,2,2,1,672.3805226
3,1,7,14,1,1,0,0,10,2,2,1,993.2991208
3,1,7,15,1,2,0,1,4,1,1,1,805.780947
3,1,7,16,1,2,1,1,6,2,2,1,969.4621246
3,1,7,17,2,2,1,0,9,2,2,1,719.39023
3,1,7,18,1,1,0,0,5,1,1,1,966.3224802
3,1,7,19,1,1,1,1,7,2,2,1,619.1678292
3,1,7,20,2,4,0,0,2,1,1,1,1350.08302
3,1,7,21,1,4,1,0,3,1,1,1,755.68225
3,1,7,22,2,4,1,0,4,1,1,1,905.0264768
3,1,7,23,2,2,0,1,1,1,1,1,1105.340153
3,1,7,24,1,2,1,0,10,2,2,1,745.2245697
3,1,7,25,1,3,0,1,9,2,2,1,759.2341872
3,1,7,26,1,3,1,1,6,2,2,1,764.8632973
3,1,7,27,2,1,0,0,7,2,2,1,641.5499386
3,1,7,28,2,1,1,1,5,1,1,1,603.8498397
3,1,7,29,1,1,1,0,8,2,2,1,711.6929234
3,1,7,30,2,4,0,0,10,2,2,1,839.5790125
3,1,7,31,2,4,1,1,2,1,1,1,770.7181107
3,1,7,32,2,4,1,1,5,1,1,1,695.3833152
3,1,7,33,1,3,0,0,4,1,1,1,1096.822429
3,1,7,34,1,2,0,1,1,1,1,1,863.8985134
3,1,7,35,2,2,1,0,3,1,1,1,649.4793603
3,1,7,36,2,3,0,1,7,2,2,1,779.0553367
3,1,7,37,1,3,1,0,2,1,1,1,1352.573127
3,1,7,38,2,1,0,0,8,2,2,1,597.7029589
3,1,7,39,2,1,1,1,9,2,2,1,689.5746684
3,1,7,40,2,1,1,1,6,2,2,1,826.2109174
3,1,7,41,1,2,0,0,1,1,1,1,1478.057595
3,1,7,42,1,3,0,1,7,2,2,1,911.7042725
3,1,7,43,2,3,1,0,4,1,1,1,760.0382541
3,1,7,44,2,2,0,1,5,1,1,1,693.5340895
3,1,7,45,2,2,1,1,6,2,2,1,678.5533719
3,1,7,46,1,4,0,0,9,2,2,1,1022.256434
3,1,7,47,1,1,0,1,3,1,1,1,1089.584543
3,1,7,48,1,4,0,1,8,2,2,1,738.4829745
3,1,8,1,2,2,99,99,4,1,1,1,1106.598511
3,1,8,2,1,2,1,0,4,1,1,1,754.2180656
3,1,8,3,1,1,0,1,9,2,2,1,1215.944252
3,1,8,4,2,3,0,0,1,1,1,1,995.5814786
3,1,8,5,2,3,1,1,3,1,1,1,1575.544629
3,1,8,6,1,4,0,0,9,2,2,1,1588.545315
3,1,8,7,2,1,0,0,5,1,1,1,825.0977914
3,1,8,8,2,4,0,1,6,2,2,1,764.8219399
3,1,8,9,1,4,1,0,2,1,1,1,866.395032
3,1,8,10,1,4,1,1,1,1,1,1,683.9388255
3,1,8,11,1,3,0,1,8,2,2,1,1236.662121
3,1,8,12,2,3,1,0,10,2,2,1,695.0713706
3,1,8,13,2,3,1,1,8,2,2,1,600.21134
3,1,8,14,1,1,0,0,10,2,2,1,675.906491
3,1,8,15,1,2,0,1,3,1,1,1,1005.480031
3,1,8,16,1,2,1,1,6,2,2,1,777.7379877
3,1,8,17,2,2,1,0,9,2,2,1,774.6634251
3,1,8,18,1,1,0,0,5,1,1,1,643.8932105
3,1,8,19,1,1,1,1,7,2,2,1,773.9279668
3,1,8,20,2,4,0,0,4,1,1,1,915.9993627
3,1,8,21,1,4,1,0,2,1,1,1,1139.535764
3,1,8,22,2,4,1,0,1,1,1,1,585.94428
3,1,8,23,2,2,0,1,5,1,1,1,669.9686421
3,1,8,24,1,2,1,0,10,2,2,1,1167.580646
3,1,8,25,1,3,0,1,9,2,2,1,788.3489153
3,1,8,26,1,3,1,1,8,2,2,1,1136.846243
3,1,8,27,2,1,0,0,7,2,2,1,686.8745678
3,1,8,28,2,1,1,1,3,1,1,1,639.754253
3,1,8,29,1,1,1,0,6,2,2,1,763.0589555
3,1,8,30,2,4,0,0,9,2,2,1,832.5491969
3,1,8,31,2,4,1,1,4,1,1,1,691.4886557
3,1,8,32,2,4,1,1,3,1,1,1,923.4042813
3,1,8,33,1,3,0,0,1,1,1,1,826.8973241
3,1,8,34,1,2,0,1,5,1,1,1,1710.936626
3,1,8,35,2,2,1,0,4,1,1,1,887.2635849
3,1,8,36,2,3,0,1,7,2,2,1,791.7912069
3,1,8,37,1,3,1,0,2,1,1,1,692.0064262
3,1,8,38,2,1,0,0,8,2,2,1,1044.929328
3,1,8,39,2,1,1,1,6,2,2,1,823.6185387
3,1,8,40,2,1,1,1,10,2,2,1,514.8619348
3,1,8,41,1,2,0,0,5,1,1,1,754.6656246
3,1,8,42,1,3,0,1,6,2,2,1,1232.964952
3,1,8,43,2,3,1,0,2,1,1,1,739.7951938
3,1,8,44,2,2,0,1,3,1,1,1,674.4333301
3,1,8,45,2,2,1,1,8,2,2,1,667.248023
3,1,8,46,1,4,0,0,7,2,2,1,948.2126981
3,1,8,47,1,1,0,1,4,1,1,1,714.4430378
3,1,8,48,1,4,0,1,9,2,2,1,777.0955034
3,1,9,1,2,2,99,99,4,1,1,1,1003.950765
3,1,9,2,1,2,1,0,1,1,1,1,1071.796323
3,1,9,3,1,1,0,1,9,2,2,1,672.5103657
3,1,9,4,2,3,0,0,5,1,1,1,689.9651603
3,1,9,5,2,3,1,1,3,1,1,1,650.4802762
3,1,9,6,1,4,0,0,7,2,2,1,676.2953799
3,1,9,7,2,1,0,0,2,1,1,1,565.7188529
3,1,9,8,2,4,0,1,9,2,2,1,1498.47955
3,1,9,9,1,4,1,0,3,1,1,1,770.5988472
3,1,9,10,1,4,1,1,1,1,1,1,1032.5038
3,1,9,11,1,3,0,1,6,2,2,1,842.9911677
3,1,9,12,2,3,1,0,8,2,2,1,717.8237741
3,1,9,13,2,3,1,1,10,2,2,1,781.925997
3,1,9,14,1,1,0,0,9,2,2,1,706.7829208
3,1,9,15,1,2,0,1,5,1,1,1,865.7855699
3,1,9,16,1,2,1,1,7,2,2,1,683.1113547
3,1,9,17,2,2,1,0,6,2,2,1,700.1368646
3,1,9,18,1,1,0,0,4,1,2,0,1276.498705
3,1,9,19,1,1,1,1,8,2,2,1,805.117303
3,1,9,20,2,4,0,0,2,1,1,1,864.945275
3,1,9,21,1,4,1,0,4,1,1,1,2049.279241
3,1,9,22,2,4,1,0,5,1,1,1,666.9716649
3,1,9,23,2,2,0,1,3,1,1,1,843.8670496
3,1,9,24,1,2,1,0,7,2,2,1,942.480034
3,1,9,25,1,3,0,1,9,2,2,1,1044.149306
3,1,9,26,1,3,1,1,6,2,2,1,1206.958129
3,1,9,27,2,1,0,0,8,2,2,1,625.9767506
3,1,9,28,2,1,1,1,2,1,1,1,597.5497116
3,1,9,29,1,1,1,0,10,2,2,1,698.0507146
3,1,9,30,2,4,0,0,8,2,2,1,1033.724648
3,1,9,31,2,4,1,1,1,1,1,1,683.9958923
3,1,9,32,2,4,1,1,4,1,1,1,772.4544851
3,1,9,33,1,3,0,0,2,1,1,1,1560.896695
3,1,9,34,1,2,0,1,3,1,1,1,1118.35751
3,1,9,35,2,2,1,0,1,1,1,1,885.5050891
3,1,9,36,2,3,0,1,10,2,2,1,709.697824
3,1,9,37,1,3,1,0,5,1,1,1,757.00024
3,1,9,38,2,1,0,0,7,2,2,1,803.4783914
3,1,9,39,2,1,1,1,6,2,2,1,759.7205385
3,1,9,40,2,1,1,1,9,2,2,1,638.0335882
3,1,9,41,1,2,0,0,1,1,1,1,767.4239366
3,1,9,42,1,3,0,1,7,2,2,1,1509.167101
3,1,9,43,2,3,1,0,3,1,1,1,909.3411234
3,1,9,44,2,2,0,1,4,1,1,1,1284.377151
3,1,9,45,2,2,1,1,10,2,2,1,851.8952162
3,1,9,46,1,4,0,0,8,2,1,0,1046.041172
3,1,9,47,1,1,0,1,5,1,1,1,1304.214972
3,1,9,48,1,4,0,1,9,2,2,1,1160.584494
3,1,10,1,2,2,99,99,4,1,1,1,730.5214927
3,1,10,2,1,2,1,0,5,1,1,1,1185.610919
3,1,10,3,1,1,0,1,9,2,2,1,581.5962909
3,1,10,4,2,3,0,0,1,1,1,1,1305.303732
3,1,10,5,2,3,1,1,3,1,1,1,1496.844165
3,1,10,6,1,4,0,0,7,2,2,1,752.7840179
3,1,10,7,2,1,0,0,2,1,1,1,1046.896856
3,1,10,8,2,4,0,1,8,2,2,1,1161.264488
3,1,10,9,1,4,1,0,5,1,1,1,702.6224833
3,1,10,10,1,4,1,1,4,1,1,1,1045.998212
3,1,10,11,1,3,0,1,9,2,2,1,904.1948381
3,1,10,12,2,3,1,0,6,2,2,1,767.8811136
3,1,10,13,2,3,1,1,7,2,2,1,845.0667378
3,1,10,14,1,1,0,0,6,2,2,1,655.0350529
3,1,10,15,1,2,0,1,1,1,1,1,872.3104391
3,1,10,16,1,2,1,1,8,2,2,1,801.2120638
3,1,10,17,2,2,1,0,10,2,2,1,596.7940553
3,1,10,18,1,1,0,0,3,1,1,1,752.6375032
3,1,10,19,1,1,1,1,9,2,2,1,654.0232366
3,1,10,20,2,4,0,0,2,1,1,1,903.6770677
3,1,10,21,1,4,1,0,1,1,1,1,1247.660014
3,1,10,22,2,4,1,0,4,1,1,1,1305.992704
3,1,10,23,2,2,0,1,3,1,1,1,905.7529585
3,1,10,24,1,2,1,0,6,2,2,1,817.3921492
3,1,10,25,1,3,0,1,10,2,2,1,1867.235327
3,1,10,26,1,3,1,1,8,2,2,1,1364.56905
3,1,10,27,2,1,0,0,9,2,2,1,921.0385673
3,1,10,28,2,1,1,1,5,1,1,1,848.1326443
3,1,10,29,1,1,1,0,7,2,2,1,833.955673
3,1,10,30,2,4,0,0,10,2,2,1,644.2173379
3,1,10,31,2,4,1,1,2,1,1,1,782.5486038
3,1,10,32,2,4,1,1,1,1,1,1,1057.75689
3,1,10,33,1,3,0,0,2,1,1,1,1067.677564
3,1,10,34,1,2,0,1,5,1,1,1,963.9721552
3,1,10,35,2,2,1,0,4,1,1,1,817.2097271
3,1,10,36,2,3,0,1,6,2,2,1,715.7523718
3,1,10,37,1,3,1,0,3,1,1,1,650.651477
3,1,10,38,2,1,0,0,8,2,2,1,963.8734099
3,1,10,39,2,1,1,1,7,2,2,1,705.4489006
3,1,10,40,2,1,1,1,9,2,2,1,825.4215983
3,1,10,41,1,2,0,0,2,1,1,1,875.9729837
3,1,10,42,1,3,0,1,6,2,2,1,949.3037029
3,1,10,43,2,3,1,0,5,1,1,1,785.7908406
3,1,10,44,2,2,0,1,1,1,1,1,630.4443239
3,1,10,45,2,2,1,1,7,2,2,1,657.4296209
3,1,10,46,1,4,0,0,10,2,2,1,666.6420873
3,1,10,47,1,1,0,1,4,1,1,1,811.781313
3,1,10,48,1,4,0,1,8,2,2,1,791.3202441
4,2,1,1,2,4,99,99,9,2,2,1,1243.694182
4,2,1,2,1,4,1,0,6,2,2,1,757.0480097
4,2,1,3,1,1,0,1,8,2,2,1,914.8413523
4,2,1,4,1,1,1,1,10,2,2,1,698.7762344
4,2,1,5,2,1,1,0,4,1,1,1,723.0460418
4,2,1,6,1,3,0,0,7,2,2,1,778.702355
4,2,1,7,1,2,0,1,2,1,2,0,823.6512402
4,2,1,8,1,2,1,1,10,2,2,1,787.0825415
4,2,1,9,2,3,0,0,8,2,2,1,744.3153455
4,2,1,10,2,2,0,1,7,2,2,1,879.0565229
4,2,1,11,2,2,1,1,5,1,1,1,672.7488928
4,2,1,12,1,3,0,0,1,1,1,1,986.3295783
4,2,1,13,1,4,0,1,9,2,2,1,839.1394687
4,2,1,14,2,4,1,0,3,1,1,1,594.1660898
4,2,1,15,1,1,0,0,6,2,2,1,806.7892366
4,2,1,16,1,3,0,1,5,1,1,1,730.7891941
4,2,1,17,1,3,1,1,9,2,1,0,610.1894015
4,2,1,18,2,4,0,0,2,1,1,1,861.7270833
4,2,1,19,1,4,1,0,10,2,2,1,863.8215689
4,2,1,20,1,1,0,1,7,2,2,1,802.3114041
4,2,1,21,2,1,1,0,6,2,2,1,838.5107706
4,2,1,22,2,1,1,1,8,2,2,1,937.8108026
4,2,1,23,2,2,0,1,10,2,2,1,696.5147157
4,2,1,24,1,2,1,0,3,1,2,0,625.2297505
4,2,1,25,2,3,0,0,4,1,1,1,676.9035598
4,2,1,26,2,2,0,1,6,2,2,1,1102.070024
4,2,1,27,1,2,1,0,1,1,1,1,630.2683139
4,2,1,28,2,2,1,0,9,2,2,1,1042.026287
4,2,1,29,2,4,0,1,3,1,1,1,676.8035323
4,2,1,30,2,4,1,1,2,1,1,1,1158.899416
4,2,1,31,1,3,0,0,8,2,1,0,820.9431244
4,2,1,32,2,1,0,0,1,1,1,1,920.2973382
4,2,1,33,2,1,1,1,4,1,1,1,1336.043266
4,2,1,34,1,3,0,0,7,2,2,1,910.5937113
4,2,1,35,2,3,1,0,9,2,2,1,607.1933862
4,2,1,36,2,3,1,1,5,1,1,1,1243.220974
4,2,1,37,2,4,0,1,8,2,2,1,749.3680154
4,2,1,38,1,4,1,0,1,1,1,1,900.0616514
4,2,1,39,1,2,0,1,2,1,1,1,803.8063662
4,2,1,40,1,2,1,1,4,1,1,1,600.4495465
4,2,1,41,2,2,1,0,10,2,2,1,636.3703106
4,2,1,42,1,1,0,0,5,1,1,1,935.6137246
4,2,1,43,1,4,0,1,3,1,1,1,1166.824669
4,2,1,44,1,4,1,1,5,1,1,1,804.0977924
4,2,1,45,2,3,0,0,4,1,1,1,647.9690094
4,2,1,46,2,3,1,1,7,2,2,1,1290.817382
4,2,1,47,1,1,0,0,1,1,1,1,899.1030548
4,2,1,48,2,1,1,0,2,1,1,1,755.3837704
4,2,2,1,2,4,99,99,9,2,2,1,1024.569569
4,2,2,2,1,4,1,0,8,2,2,1,604.0941374
4,2,2,3,1,1,0,1,9,2,2,1,832.3981941
4,2,2,4,1,1,1,1,6,2,2,1,771.1871499
4,2,2,5,2,1,1,0,4,1,1,1,640.3688448
4,2,2,6,1,3,0,0,10,2,2,1,699.8550561
4,2,2,7,1,2,0,1,3,1,1,1,1124.069656
4,2,2,8,1,2,1,1,9,2,2,1,923.1529301
4,2,2,9,2,3,0,0,7,2,2,1,835.1874216
4,2,2,10,2,2,0,1,6,2,2,1,1077.432167
4,2,2,11,2,2,1,1,5,1,1,1,614.6512039
4,2,2,12,1,3,0,0,4,1,1,1,762.7514994
4,2,2,13,1,4,0,1,8,2,2,1,832.8088836
4,2,2,14,2,4,1,0,2,1,1,1,835.3483633
4,2,2,15,1,1,0,0,10,2,2,1,742.4908062
4,2,2,16,1,3,0,1,4,1,1,1,1525.661376
4,2,2,17,1,3,1,1,8,2,2,1,749.3747482
4,2,2,18,2,4,0,0,3,1,1,1,683.3245542
4,2,2,19,1,4,1,0,9,2,1,0,468.1638514
4,2,2,20,1,1,0,1,6,2,2,1,941.1197242
4,2,2,21,2,1,1,0,7,2,2,1,667.8433788
4,2,2,22,2,1,1,1,10,2,2,1,509.1520331
4,2,2,23,2,2,0,1,7,2,2,1,685.2667544
4,2,2,24,1,2,1,0,2,1,1,1,670.4796799
4,2,2,25,2,3,0,0,5,1,1,1,607.975011
4,2,2,26,2,2,0,1,8,2,2,1,659.9966723
4,2,2,27,1,2,1,0,1,1,1,1,950.5444283
4,2,2,28,2,2,1,0,9,2,2,1,964.9025388
4,2,2,29,2,4,0,1,3,1,1,1,601.9355317
4,2,2,30,2,4,1,1,2,1,1,1,782.2100495
4,2,2,31,1,3,0,0,6,2,2,1,1019.587752
4,2,2,32,2,1,0,0,4,1,1,1,951.2673835
4,2,2,33,2,1,1,1,5,1,1,1,629.2507269
4,2,2,34,1,3,0,0,10,2,2,1,712.5745758
4,2,2,35,2,3,1,0,7,2,2,1,600.7210955
4,2,2,36,2,3,1,1,1,1,1,1,941.0071934
4,2,2,37,2,4,0,1,9,2,2,1,892.4608459
4,2,2,38,1,4,1,0,5,1,1,1,717.2133499
4,2,2,39,1,2,0,1,1,1,1,1,620.8663727
4,2,2,40,1,2,1,1,3,1,1,1,855.9649237
4,2,2,41,2,2,1,0,8,2,2,1,858.5467224
4,2,2,42,1,1,0,0,2,1,1,1,796.9878265
4,2,2,43,1,4,0,1,4,1,1,1,833.1794983
4,2,2,44,1,4,1,1,2,1,1,1,644.6466225
4,2,2,45,2,3,0,0,4,1,1,1,847.0682492
4,2,2,46,2,3,1,1,6,2,2,1,745.7400959
4,2,2,47,1,1,0,0,1,1,1,1,672.5071599
4,2,2,48,2,1,1,0,3,1,1,1,554.0258975
4,2,3,1,2,4,99,99,9,2,2,1,741.3138801
4,2,3,2,1,4,1,0,7,2,2,1,548.0175163
4,2,3,3,1,1,0,1,10,2,2,1,554.5196231
4,2,3,4,1,1,1,1,6,2,2,1,808.6548133
4,2,3,5,2,1,1,0,4,1,1,1,596.640808
4,2,3,6,1,3,0,0,9,2,2,1,777.7828716
4,2,3,7,1,2,0,1,1,1,1,1,759.4874618
4,2,3,8,1,2,1,1,7,2,2,1,765.4147309
4,2,3,9,2,3,0,0,10,2,2,1,771.3721364
4,2,3,10,2,2,0,1,6,2,2,1,1040.531967
4,2,3,11,2,2,1,1,5,1,1,1,954.8273357
4,2,3,12,1,3,0,0,4,1,1,1,600.8820371
4,2,3,13,1,4,0,1,8,2,2,1,1574.01953
4,2,3,14,2,4,1,0,3,1,1,1,922.9160061
4,2,3,15,1,1,0,0,9,2,2,1,722.9671739
4,2,3,16,1,3,0,1,1,1,1,1,706.588316
4,2,3,17,1,3,1,1,10,2,1,0,538.3732007
4,2,3,18,2,4,0,0,5,1,1,1,704.5704543
4,2,3,19,1,4,1,0,9,2,2,1,672.8248755
4,2,3,20,1,1,0,1,7,2,2,1,666.5029463
4,2,3,21,2,1,1,0,8,2,2,1,627.8484187
4,2,3,22,2,1,1,1,6,2,2,1,647.1643012
4,2,3,23,2,2,0,1,7,2,2,1,665.9960765
4,2,3,24,1,2,1,0,4,1,1,1,747.9807755
4,2,3,25,2,3,0,0,2,1,1,1,1026.893605
4,2,3,26,2,2,0,1,6,2,2,1,1022.568699
4,2,3,27,1,2,1,0,3,1,1,1,986.0692504
4,2,3,28,2,2,1,0,8,2,2,1,807.2601994
4,2,3,29,2,4,0,1,5,1,1,1,1267.290086
4,2,3,30,2,4,1,1,1,1,1,1,1068.930793
4,2,3,31,1,3,0,0,9,2,2,1,1445.886578
4,2,3,32,2,1,0,0,2,1,1,1,1016.479847
4,2,3,33,2,1,1,1,4,1,1,1,660.4291629
4,2,3,34,1,3,0,0,10,2,2,1,1086.705868
4,2,3,35,2,3,1,0,7,2,2,1,494.8243797
4,2,3,36,2,3,1,1,3,1,1,1,655.5454496
4,2,3,37,2,4,0,1,6,2,2,1,809.3460286
4,2,3,38,1,4,1,0,5,1,1,1,629.5084902
4,2,3,39,1,2,0,1,3,1,1,1,633.2662529
4,2,3,40,1,2,1,1,4,1,1,1,691.7589221
4,2,3,41,2,2,1,0,10,2,2,1,540.6972363
4,2,3,42,1,1,0,0,2,1,1,1,811.8483187
4,2,3,43,1,4,0,1,1,1,1,1,848.2775555
4,2,3,44,1,4,1,1,3,1,1,1,593.819841
4,2,3,45,2,3,0,0,4,1,1,1,846.0394409
4,2,3,46,2,3,1,1,9,2,2,1,737.5246983
4,2,3,47,1,1,0,0,1,1,1,1,695.6131859
4,2,3,48,2,1,1,0,5,1,1,1,544.0972087
4,2,4,1,2,4,99,99,9,2,2,1,783.7537425
4,2,4,2,1,4,1,0,10,2,2,1,972.3045721
4,2,4,3,1,1,0,1,9,2,2,1,642.2443599
4,2,4,4,1,1,1,1,6,2,2,1,644.7575504
4,2,4,5,2,1,1,0,4,1,2,0,511.7110694
4,2,4,6,1,3,0,0,8,2,2,1,1064.058942
4,2,4,7,1,2,0,1,5,1,1,1,689.8327521
4,2,4,8,1,2,1,1,7,2,2,1,651.0400453
4,2,4,9,2,3,0,0,9,2,2,1,669.4335591
4,2,4,10,2,2,0,1,8,2,2,1,862.9286955
4,2,4,11,2,2,1,1,2,1,1,1,801.1848126
4,2,4,12,1,3,0,0,3,1,1,1,797.3279839
4,2,4,13,1,4,0,1,10,2,2,1,898.623436
4,2,4,14,2,4,1,0,4,1,1,1,938.5937098
4,2,4,15,1,1,0,0,6,2,2,1,1081.172938
4,2,4,16,1,3,0,1,2,1,1,1,1210.598552
4,2,4,17,1,3,1,1,8,2,2,1,646.7613059
4,2,4,18,2,4,0,0,1,1,1,1,985.5873873
4,2,4,19,1,4,1,0,6,2,2,1,766.5611997
4,2,4,20,1,1,0,1,10,2,2,1,571.8788782
4,2,4,21,2,1,1,0,9,2,2,1,593.2318589
4,2,4,22,2,1,1,1,7,2,2,1,620.9292102
4,2,4,23,2,2,0,1,8,2,2,1,696.9161083
4,2,4,24,1,2,1,0,4,1,1,1,633.6432796
4,2,4,25,2,3,0,0,5,1,1,1,867.926222
4,2,4,26,2,2,0,1,10,2,2,1,597.2528351
4,2,4,27,1,2,1,0,3,1,1,1,738.1094743
4,2,4,28,2,2,1,0,6,2,2,1,609.2561323
4,2,4,29,2,4,0,1,4,1,1,1,692.4751445
4,2,4,30,2,4,1,1,3,1,1,1,740.7028147
4,2,4,31,1,3,0,0,7,2,2,1,682.8099897
4,2,4,32,2,1,0,0,1,1,1,1,619.5220931
4,2,4,33,2,1,1,1,5,1,1,1,558.0285995
4,2,4,34,1,3,0,0,9,2,2,1,555.5580491
4,2,4,35,2,3,1,0,6,2,2,1,1050.316064
4,2,4,36,2,3,1,1,2,1,1,1,932.0877562
4,2,4,37,2,4,0,1,8,2,2,1,674.9825194
4,2,4,38,1,4,1,0,1,1,1,1,660.9745049
4,2,4,39,1,2,0,1,3,1,1,1,791.0066964
4,2,4,40,1,2,1,1,4,1,1,1,708.1089262
4,2,4,41,2,2,1,0,10,2,2,1,571.9138237
4,2,4,42,1,1,0,0,2,1,1,1,809.1934228
4,2,4,43,1,4,0,1,5,1,1,1,1244.807308
4,2,4,44,1,4,1,1,4,1,1,1,567.716517
4,2,4,45,2,3,0,0,1,1,1,1,924.7408665
4,2,4,46,2,3,1,1,7,2,2,1,900.3784053
4,2,4,47,1,1,0,0,2,1,1,1,1020.204909
4,2,4,48,2,1,1,0,3,1,1,1,791.4994599
4,2,5,1,2,4,99,99,9,2,2,1,682.2175195
4,2,5,2,1,4,1,0,9,2,2,1,770.3381986
4,2,5,3,1,1,0,1,8,2,2,1,599.9792251
4,2,5,4,1,1,1,1,10,2,2,1,659.5471897
4,2,5,5,2,1,1,0,4,1,1,1,653.4778944
4,2,5,6,1,3,0,0,6,2,2,1,743.4766537
4,2,5,7,1,2,0,1,2,1,1,1,622.2455977
4,2,5,8,1,2,1,1,10,2,2,1,945.9489353
4,2,5,9,2,3,0,0,6,2,2,1,681.1996116
4,2,5,10,2,2,0,1,9,2,2,1,785.9335081
4,2,5,11,2,2,1,1,5,1,1,1,686.5565316
4,2,5,12,1,3,0,0,3,1,1,1,630.86367
4,2,5,13,1,4,0,1,7,2,2,1,665.6870171
4,2,5,14,2,4,1,0,1,1,1,1,627.1915075
4,2,5,15,1,1,0,0,8,2,2,1,566.5754986
4,2,5,16,1,3,0,1,4,1,1,1,676.7528772
4,2,5,17,1,3,1,1,9,2,1,0,526.4051696
4,2,5,18,2,4,0,0,2,1,1,1,1012.444123
4,2,5,19,1,4,1,0,7,2,2,1,640.6487296
4,2,5,20,1,1,0,1,6,2,2,1,699.3244619
4,2,5,21,2,1,1,0,8,2,2,1,931.6805929
4,2,5,22,2,1,1,1,10,2,2,1,497.7777549
4,2,5,23,2,2,0,1,6,2,2,1,922.8134139
4,2,5,24,1,2,1,0,3,1,1,1,802.3181367
4,2,5,25,2,3,0,0,1,1,1,1,1038.738205
4,2,5,26,2,2,0,1,7,2,2,1,600.616259
4,2,5,27,1,2,1,0,5,1,1,1,900.6659843
4,2,5,28,2,2,1,0,9,2,2,1,773.0415054
4,2,5,29,2,4,0,1,1,1,1,1,1091.012499
4,2,5,30,2,4,1,1,5,1,1,1,883.8059045
4,2,5,31,1,3,0,0,8,2,2,1,780.0203452
4,2,5,32,2,1,0,0,4,1,1,1,1249.339001
4,2,5,33,2,1,1,1,3,1,1,1,683.7111989
4,2,5,34,1,3,0,0,10,2,2,1,572.4473034
4,2,5,35,2,3,1,0,6,2,2,1,954.3461138
4,2,5,36,2,3,1,1,2,1,1,1,1160.686766
4,2,5,37,2,4,0,1,8,2,2,1,574.9261898
4,2,5,38,1,4,1,0,5,1,1,1,788.5133834
4,2,5,39,1,2,0,1,4,1,1,1,897.466708
4,2,5,40,1,2,1,1,3,1,1,1,769.3465801
4,2,5,41,2,2,1,0,7,2,2,1,718.8830392
4,2,5,42,1,1,0,0,1,1,1,1,726.3613755
4,2,5,43,1,4,0,1,2,1,1,1,1206.391627
4,2,5,44,1,4,1,1,4,1,1,1,602.6386095
4,2,5,45,2,3,0,0,3,1,1,1,638.4609488
4,2,5,46,2,3,1,1,10,2,2,1,657.1721784
4,2,5,47,1,1,0,0,1,1,1,1,730.7770115
4,2,5,48,2,1,1,0,2,1,1,1,866.2116486
4,2,6,1,2,4,99,99,9,2,2,1,643.610761
4,2,6,2,1,4,1,0,9,2,2,1,494.2040169
4,2,6,3,1,1,0,1,6,2,2,1,638.2515966
4,2,6,4,1,1,1,1,7,2,2,1,513.2695104
4,2,6,5,2,1,1,0,4,1,1,1,712.7412884
4,2,6,6,1,3,0,0,10,2,1,0,592.7172946
4,2,6,7,1,2,0,1,3,1,1,1,957.6880573
4,2,6,8,1,2,1,1,9,2,2,1,650.6585302
4,2,6,9,2,3,0,0,8,2,2,1,676.3521263
4,2,6,10,2,2,0,1,7,2,2,1,581.4933782
4,2,6,11,2,2,1,1,4,1,1,1,546.5241573
4,2,6,12,1,3,0,0,5,1,1,1,585.3902819
4,2,6,13,1,4,0,1,6,2,2,1,629.9788114
4,2,6,14,2,4,1,0,2,1,1,1,697.4713888
4,2,6,15,1,1,0,0,10,2,2,1,754.1103438
4,2,6,16,1,3,0,1,5,1,1,1,912.5984283
4,2,6,17,1,3,1,1,9,2,1,0,505.179788
4,2,6,18,2,4,0,0,2,1,1,1,1000.506229
4,2,6,19,1,4,1,0,10,2,2,1,548.3685744
4,2,6,20,1,1,0,1,6,2,2,1,714.4000772
4,2,6,21,2,1,1,0,8,2,2,1,561.4849979
4,2,6,22,2,1,1,1,7,2,2,1,575.0092252
4,2,6,23,2,2,0,1,6,2,2,1,764.6751048
4,2,6,24,1,2,1,0,4,1,1,1,594.2593848
4,2,6,25,2,3,0,0,1,1,1,1,527.4006354
4,2,6,26,2,2,0,1,10,2,2,1,606.9465233
4,2,6,27,1,2,1,0,3,1,1,1,667.3233639
4,2,6,28,2,2,1,0,7,2,2,1,604.0191166
4,2,6,29,2,4,0,1,2,1,1,1,839.2898308
4,2,6,30,2,4,1,1,1,1,1,1,698.4254969
4,2,6,31,1,3,0,0,8,2,2,1,705.9464729
4,2,6,32,2,1,0,0,4,1,1,1,729.418305
4,2,6,33,2,1,1,1,5,1,1,1,560.4940203
4,2,6,34,1,3,0,0,9,2,2,1,533.648185
4,2,6,35,2,3,1,0,10,2,2,1,651.9460634
4,2,6,36,2,3,1,1,3,1,1,1,782.1988282
4,2,6,37,2,4,0,1,7,2,2,1,962.5804268
4,2,6,38,1,4,1,0,4,1,1,1,776.1381892
4,2,6,39,1,2,0,1,3,1,1,1,693.4042459
4,2,6,40,1,2,1,1,2,1,1,1,605.8096727
4,2,6,41,2,2,1,0,8,2,2,1,786.0101315
4,2,6,42,1,1,0,0,1,1,1,1,991.0029774
4,2,6,43,1,4,0,1,5,1,1,1,770.3234509
4,2,6,44,1,4,1,1,4,1,1,1,639.465712
4,2,6,45,2,3,0,0,3,1,1,1,778.0704508
4,2,6,46,2,3,1,1,9,2,2,1,815.3165788
4,2,6,47,1,1,0,0,1,1,1,1,731.2412416
4,2,6,48,2,1,1,0,2,1,1,1,586.4498678
4,2,7,1,2,4,99,99,9,2,2,1,767.3889911
4,2,7,2,1,4,1,0,6,2,2,1,557.1424589
4,2,7,3,1,1,0,1,7,2,2,1,658.950872
4,2,7,4,1,1,1,1,8,2,2,1,829.160125
4,2,7,5,2,1,1,0,4,1,1,1,616.4943383
4,2,7,6,1,3,0,0,9,2,2,1,690.9025973
4,2,7,7,1,2,0,1,1,1,1,1,875.8530787
4,2,7,8,1,2,1,1,10,2,2,1,677.4248569
4,2,7,9,2,3,0,0,7,2,2,1,598.4287991
4,2,7,10,2,2,0,1,9,2,2,1,731.0322097
4,2,7,11,2,2,1,1,5,1,1,1,616.7405599
4,2,7,12,1,3,0,0,4,1,1,1,811.4417966
4,2,7,13,1,4,0,1,6,2,2,1,1055.850598
4,2,7,14,2,4,1,0,3,1,1,1,824.9294758
4,2,7,15,1,1,0,0,8,2,2,1,603.7430796
4,2,7,16,1,3,0,1,4,1,1,1,638.7443601
4,2,7,17,1,3,1,1,10,2,2,1,673.0390366
4,2,7,18,2,4,0,0,1,1,1,1,666.1381028
4,2,7,19,1,4,1,0,9,2,2,1,715.0752626
4,2,7,20,1,1,0,1,8,2,2,1,930.3311838
4,2,7,21,2,1,1,0,7,2,2,1,1194.252716
4,2,7,22,2,1,1,1,6,2,2,1,718.6118108
4,2,7,23,2,2,0,1,7,2,2,1,685.0298303
4,2,7,24,1,2,1,0,5,1,1,1,757.8206577
4,2,7,25,2,3,0,0,2,1,1,1,746.9574176
4,2,7,26,2,2,0,1,8,2,2,1,634.2684512
4,2,7,27,1,2,1,0,3,1,1,1,628.3713188
4,2,7,28,2,2,1,0,9,2,2,1,759.223928
4,2,7,29,2,4,0,1,5,1,1,1,1052.534302
4,2,7,30,2,4,1,1,3,1,1,1,766.6528914
4,2,7,31,1,3,0,0,10,2,2,1,683.5787906
4,2,7,32,2,1,0,0,4,1,1,1,1164.12521
4,2,7,33,2,1,1,1,1,1,1,1,1258.033056
4,2,7,34,1,3,0,0,6,2,2,1,996.1579191
4,2,7,35,2,3,1,0,9,2,2,1,808.4012179
4,2,7,36,2,3,1,1,2,1,1,1,659.5956006
4,2,7,37,2,4,0,1,8,2,2,1,733.6277945
4,2,7,38,1,4,1,0,4,1,1,1,644.0817239
4,2,7,39,1,2,0,1,5,1,1,1,998.1652012
4,2,7,40,1,2,1,1,2,1,1,1,657.4302621
4,2,7,41,2,2,1,0,10,2,1,0,603.3160391
4,2,7,42,1,1,0,0,1,1,1,1,886.1770686
4,2,7,43,1,4,0,1,3,1,1,1,831.5421895
4,2,7,44,1,4,1,1,4,1,1,1,1393.789256
4,2,7,45,2,3,0,0,2,1,1,1,3324.436552
4,2,7,46,2,3,1,1,7,2,2,1,1508.675941
4,2,7,47,1,1,0,0,5,1,1,1,2883.754929
4,2,7,48,2,1,1,0,1,1,1,1,691.0106398
4,2,8,1,2,4,99,99,9,2,2,1,1383.945205
4,2,8,2,1,4,1,0,10,2,2,1,596.2102411
4,2,8,3,1,1,0,1,8,2,2,1,1032.157551
4,2,8,4,1,1,1,1,7,2,2,1,1042.729686
4,2,8,5,2,1,1,0,4,1,2,0,940.74398
4,2,8,6,1,3,0,0,6,2,2,1,1770.732538
4,2,8,7,1,2,0,1,1,1,1,1,919.6968526
4,2,8,8,1,2,1,1,9,2,2,1,1071.07433
4,2,8,9,2,3,0,0,10,2,2,1,655.8413641
4,2,8,10,2,2,0,1,8,2,2,1,673.1467587
4,2,8,11,2,2,1,1,2,1,1,1,826.1096077
4,2,8,12,1,3,0,0,4,1,1,1,684.5502113
4,2,8,13,1,4,0,1,7,2,2,1,868.8206985
4,2,8,14,2,4,1,0,3,1,1,1,709.2630893
4,2,8,15,1,1,0,0,6,2,2,1,757.5763599
4,2,8,16,1,3,0,1,5,1,1,1,803.5431528
4,2,8,17,1,3,1,1,9,2,2,1,743.1441906
4,2,8,18,2,4,0,0,4,1,1,1,661.8087084
4,2,8,19,1,4,1,0,7,2,2,1,719.4905779
4,2,8,20,1,1,0,1,10,2,2,1,726.1157953
4,2,8,21,2,1,1,0,6,2,2,1,525.0602488
4,2,8,22,2,1,1,1,8,2,2,1,541.0011662
4,2,8,23,2,2,0,1,7,2,2,1,874.1433143
4,2,8,24,1,2,1,0,3,1,1,1,779.7587349
4,2,8,25,2,3,0,0,1,1,2,0,984.7339478
4,2,8,26,2,2,0,1,6,2,2,1,780.9629119
4,2,8,27,1,2,1,0,2,1,1,1,769.7575905
4,2,8,28,2,2,1,0,8,2,1,0,1413.893175
4,2,8,29,2,4,0,1,1,1,1,1,713.2087243
4,2,8,30,2,4,1,1,4,1,1,1,833.0397164
4,2,8,31,1,3,0,0,9,2,2,1,762.5225903
4,2,8,32,2,1,0,0,3,1,1,1,688.0155865
4,2,8,33,2,1,1,1,5,1,1,1,679.7649225
4,2,8,34,1,3,0,0,10,2,2,1,534.9212908
4,2,8,35,2,3,1,0,8,2,2,1,509.1757576
4,2,8,36,2,3,1,1,2,1,1,1,701.038715
4,2,8,37,2,4,0,1,6,2,2,1,811.628707
4,2,8,38,1,4,1,0,1,1,1,1,703.0318906
4,2,8,39,1,2,0,1,4,1,1,1,990.1184395
4,2,8,40,1,2,1,1,5,1,1,1,722.8677876
4,2,8,41,2,2,1,0,7,2,2,1,657.6194167
4,2,8,42,1,1,0,0,2,1,1,1,770.6991953
4,2,8,43,1,4,0,1,3,1,1,1,784.031383
4,2,8,44,1,4,1,1,4,1,1,1,1060.088941
4,2,8,45,2,3,0,0,1,1,1,1,1141.98291
4,2,8,46,2,3,1,1,9,2,2,1,692.1914129
4,2,8,47,1,1,0,0,5,1,1,1,676.1895816
4,2,8,48,2,1,1,0,2,1,1,1,781.0501154
4,2,9,1,2,4,99,99,9,2,2,1,888.3106674
4,2,9,2,1,4,1,0,8,2,2,1,576.8558863
4,2,9,3,1,1,0,1,6,2,2,1,677.8073336
4,2,9,4,1,1,1,1,9,2,2,1,558.0795752
4,2,9,5,2,1,1,0,4,1,1,1,571.4242661
4,2,9,6,1,3,0,0,10,2,2,1,639.5096343
4,2,9,7,1,2,0,1,3,1,1,1,802.0587706
4,2,9,8,1,2,1,1,9,2,2,1,693.3385229
4,2,9,9,2,3,0,0,7,2,2,1,781.4649728
4,2,9,10,2,2,0,1,6,2,2,1,777.7928105
4,2,9,11,2,2,1,1,5,1,1,1,1263.088611
4,2,9,12,1,3,0,0,2,1,1,1,752.1376864
4,2,9,13,1,4,0,1,8,2,2,1,630.2548489
4,2,9,14,2,4,1,0,4,1,1,1,592.6839518
4,2,9,15,1,1,0,0,10,2,2,1,716.9312211
4,2,9,16,1,3,0,1,2,1,1,1,804.2510394
4,2,9,17,1,3,1,1,9,2,2,1,591.4066781
4,2,9,18,2,4,0,0,4,1,1,1,707.754662
4,2,9,19,1,4,1,0,7,2,2,1,739.3825804
4,2,9,20,1,1,0,1,8,2,2,1,681.8764
4,2,9,21,2,1,1,0,10,2,2,1,586.1651744
4,2,9,22,2,1,1,1,6,2,2,1,1030.01209
4,2,9,23,2,2,0,1,8,2,2,1,520.9353981
4,2,9,24,1,2,1,0,5,1,1,1,743.8148877
4,2,9,25,2,3,0,0,1,1,1,1,846.0541884
4,2,9,26,2,2,0,1,7,2,2,1,640.1296768
4,2,9,27,1,2,1,0,3,1,1,1,626.4483547
4,2,9,28,2,2,1,0,10,2,2,1,821.3342575
4,2,9,29,2,4,0,1,4,1,1,1,751.2983535
4,2,9,30,2,4,1,1,5,1,1,1,596.4603098
4,2,9,31,1,3,0,0,6,2,2,1,1096.702844
4,2,9,32,2,1,0,0,2,1,1,1,728.0506215
4,2,9,33,2,1,1,1,1,1,1,1,566.9525252
4,2,9,34,1,3,0,0,9,2,2,1,587.9387383
4,2,9,35,2,3,1,0,7,2,2,1,590.2691861
4,2,9,36,2,3,1,1,3,1,1,1,850.5451658
4,2,9,37,2,4,0,1,6,2,2,1,820.438178
4,2,9,38,1,4,1,0,4,1,1,1,735.424442
4,2,9,39,1,2,0,1,1,1,1,1,989.62247
4,2,9,40,1,2,1,1,2,1,1,1,1073.27782
4,2,9,41,2,2,1,0,10,2,2,1,753.7281874
4,2,9,42,1,1,0,0,3,1,1,1,743.1227104
4,2,9,43,1,4,0,1,5,1,1,1,2069.531599
4,2,9,44,1,4,1,1,3,1,1,1,558.5280957
4,2,9,45,2,3,0,0,4,1,1,1,827.6321413
4,2,9,46,2,3,1,1,8,2,2,1,726.5194317
4,2,9,47,1,1,0,0,1,1,1,1,844.7769147
4,2,9,48,2,1,1,0,2,1,1,1,1263.570154
4,2,10,1,2,4,99,99,9,2,2,1,694.9139554
4,2,10,2,1,4,1,0,10,2,2,1,518.8713695
4,2,10,3,1,1,0,1,6,2,2,1,653.7398254
4,2,10,4,1,1,1,1,9,2,2,1,455.0512752
4,2,10,5,2,1,1,0,4,1,1,1,528.7840283
4,2,10,6,1,3,0,0,8,2,2,1,623.8982952
4,2,10,7,1,2,0,1,1,1,1,1,634.528138
4,2,10,8,1,2,1,1,6,2,2,1,868.8963603
4,2,10,9,2,3,0,0,10,2,2,1,589.7552629
4,2,10,10,2,2,0,1,7,2,2,1,569.9713032
4,2,10,11,2,2,1,1,5,1,1,1,630.4202788
4,2,10,12,1,3,0,0,2,1,1,1,888.9701434
4,2,10,13,1,4,0,1,9,2,2,1,689.3916053
4,2,10,14,2,4,1,0,4,1,1,1,665.5411439
4,2,10,15,1,1,0,0,8,2,2,1,1370.315179
4,2,10,16,1,3,0,1,2,1,1,1,1870.641391
4,2,10,17,1,3,1,1,10,2,2,1,1111.830718
4,2,10,18,2,4,0,0,5,1,1,1,686.4462451
4,2,10,19,1,4,1,0,8,2,2,1,565.9233963
4,2,10,20,1,1,0,1,6,2,2,1,739.2687672
4,2,10,21,2,1,1,0,7,2,2,1,849.311173
4,2,10,22,2,1,1,1,9,2,2,1,619.1287157
4,2,10,23,2,2,0,1,6,2,2,1,773.8853267
4,2,10,24,1,2,1,0,4,1,2,0,522.4871063
4,2,10,25,2,3,0,0,3,1,1,1,849.0915615
4,2,10,26,2,2,0,1,7,2,2,1,1274.770025
4,2,10,27,1,2,1,0,1,1,1,1,723.8869779
4,2,10,28,2,2,1,0,8,2,2,1,722.9591589
4,2,10,29,2,4,0,1,5,1,1,1,911.9569061
4,2,10,30,2,4,1,1,4,1,1,1,768.0862981
4,2,10,31,1,3,0,0,9,2,2,1,708.7010758
4,2,10,32,2,1,0,0,3,1,1,1,572.5287364
4,2,10,33,2,1,1,1,2,1,1,1,873.4758233
4,2,10,34,1,3,0,0,10,2,2,1,578.4540817
4,2,10,35,2,3,1,0,6,2,2,1,967.243887
4,2,10,36,2,3,1,1,1,1,1,1,668.1479497
4,2,10,37,2,4,0,1,7,2,2,1,940.5282156
4,2,10,38,1,4,1,0,5,1,1,1,930.1747307
4,2,10,39,1,2,0,1,2,1,1,1,1776.749254
4,2,10,40,1,2,1,1,3,1,1,1,749.2917124
4,2,10,41,2,2,1,0,10,2,2,1,706.9682281
4,2,10,42,1,1,0,0,1,1,1,1,858.7406862
4,2,10,43,1,4,0,1,4,1,1,1,1059.046347
4,2,10,44,1,4,1,1,3,1,1,1,1020.529357
4,2,10,45,2,3,0,0,5,1,1,1,1862.759098
4,2,10,46,2,3,1,1,8,2,2,1,703.5724237
4,2,10,47,1,1,0,0,2,1,1,1,862.5478218
4,2,10,48,2,1,1,0,4,1,1,1,607.4033796
5,2,1,1,1,3,99,99,4,1,1,1,1774.402135
5,2,1,2,1,4,0,1,1,1,1,1,1033.722404
5,2,1,3,1,4,1,1,8,2,2,1,700.7155491
5,2,1,4,2,4,1,0,2,1,1,1,685.2847082
5,2,1,5,2,1,0,1,7,2,2,1,870.1518334
5,2,1,6,1,2,0,0,3,1,1,1,1191.543639
5,2,1,7,1,2,1,1,6,2,2,1,820.5391674
5,2,1,8,2,2,1,0,9,2,2,1,1607.934615
5,2,1,9,2,1,0,1,10,2,2,1,980.3474864
5,2,1,10,2,1,1,1,6,2,2,1,730.1579311
5,2,1,11,1,3,0,0,7,2,2,1,905.776683
5,2,1,12,1,3,1,1,8,2,2,1,681.8430577
5,2,1,13,1,4,0,1,10,2,2,1,778.889586
5,2,1,14,2,1,0,0,9,2,2,1,2016.11853
5,2,1,15,1,1,1,0,10,2,2,1,779.8648539
5,2,1,16,1,2,0,1,5,1,1,1,953.8103896
5,2,1,17,2,2,1,0,3,1,1,1,671.6610941
5,2,1,18,2,3,0,1,2,1,1,1,897.561606
5,2,1,19,2,3,1,1,7,2,2,1,770.4856752
5,2,1,20,1,4,0,0,4,1,1,1,904.2317071
5,2,1,21,1,4,1,1,9,2,2,1,1224.143619
5,2,1,22,2,4,1,0,6,2,2,1,715.810721
5,2,1,23,1,1,0,0,8,2,2,1,947.7301938
5,2,1,24,2,2,0,0,1,1,1,1,1066.323987
5,2,1,25,1,2,1,0,5,1,1,1,852.2318471
5,2,1,26,1,2,1,1,6,2,2,1,782.0853356
5,2,1,27,1,3,0,1,7,2,2,1,1939.370205
5,2,1,28,2,3,1,0,3,1,1,1,674.120744
5,2,1,29,2,3,1,1,2,1,1,1,747.9592953
5,2,1,30,2,1,0,1,9,2,2,1,833.6286601
5,2,1,31,1,1,1,0,1,1,1,1,900.6339242
5,2,1,32,1,1,1,1,10,2,2,1,716.9074966
5,2,1,33,2,4,0,0,8,2,2,1,772.7734831
5,2,1,34,2,4,1,1,4,1,1,1,1666.228833
5,2,1,35,1,2,0,0,5,1,1,1,1291.512765
5,2,1,36,2,3,0,0,6,2,2,1,772.5375209
5,2,1,37,1,3,1,0,9,2,2,1,826.4032779
5,2,1,38,1,3,1,1,1,1,1,1,637.8325713
5,2,1,39,1,1,0,1,4,1,1,1,769.0740693
5,2,1,40,2,1,1,0,2,1,1,1,822.733039
5,2,1,41,2,2,0,1,5,1,1,1,786.4506373
5,2,1,42,1,4,0,0,3,1,1,1,823.1257752
5,2,1,43,2,4,1,0,2,1,1,1,666.5529604
5,2,1,44,2,4,1,1,4,1,1,1,1244.322239
5,2,1,45,2,2,0,1,3,1,1,1,638.9873757
5,2,1,46,1,1,0,0,1,1,1,1,897.7533253
5,2,1,47,2,2,0,0,10,2,2,1,874.2305178
5,2,1,48,2,3,0,1,7,2,2,1,691.9974494
5,2,2,1,1,3,99,99,4,1,1,1,1714.685092
5,2,2,2,1,4,0,1,1,1,1,1,1226.752989
5,2,2,3,1,4,1,1,8,2,2,1,878.4787999
5,2,2,4,2,4,1,0,5,1,1,1,1264.010659
5,2,2,5,2,1,0,1,7,2,2,1,1154.123424
5,2,2,6,1,2,0,0,3,1,1,1,864.2239231
5,2,2,7,1,2,1,1,9,2,2,1,1234.514096
5,2,2,8,2,2,1,0,8,2,2,1,717.9080921
5,2,2,9,2,1,0,1,10,2,2,1,580.9653485
5,2,2,10,2,1,1,1,7,2,2,1,714.2221436
5,2,2,11,1,3,0,0,10,2,2,1,706.1029263
5,2,2,12,1,3,1,1,9,2,2,1,650.5931276
5,2,2,13,1,4,0,1,6,2,2,1,716.5958725
5,2,2,14,2,1,0,0,8,2,2,1,748.0984358
5,2,2,15,1,1,1,0,9,2,2,1,650.2433522
5,2,2,16,1,2,0,1,4,1,1,1,956.2902374
5,2,2,17,2,2,1,0,1,1,1,1,986.0035272
5,2,2,18,2,3,0,1,3,1,1,1,606.8981127
5,2,2,19,2,3,1,1,7,2,2,1,602.6296325
5,2,2,20,1,4,0,0,5,1,1,1,838.8470807
5,2,2,21,1,4,1,1,8,2,2,1,633.7449101
5,2,2,22,2,4,1,0,6,2,2,1,805.0730603
5,2,2,23,1,1,0,0,10,2,2,1,825.5575327
5,2,2,24,2,2,0,0,2,1,1,1,996.8760652
5,2,2,25,1,2,1,0,4,1,1,1,1785.52346
5,2,2,26,1,2,1,1,7,2,2,1,814.541366
5,2,2,27,1,3,0,1,9,2,2,1,978.1138601
5,2,2,28,2,3,1,0,5,1,1,1,847.6453307
5,2,2,29,2,3,1,1,4,1,1,1,770.5324828
5,2,2,30,2,1,0,1,6,2,2,1,992.4049652
5,2,2,31,1,1,1,0,1,1,1,1,741.008027
5,2,2,32,1,1,1,1,10,2,2,1,804.6069064
5,2,2,33,2,4,0,0,8,2,2,1,832.5626622
5,2,2,34,2,4,1,1,2,1,1,1,691.1183617
5,2,2,35,1,2,0,0,3,1,1,1,740.0430182
5,2,2,36,2,3,0,0,10,2,2,1,707.2843406
5,2,2,37,1,3,1,0,9,2,2,1,667.1217061
5,2,2,38,1,3,1,1,5,1,2,0,1004.767656
5,2,2,39,1,1,0,1,1,1,1,1,976.9946425
5,2,2,40,2,1,1,0,4,1,1,1,1166.325814
5,2,2,41,2,2,0,1,2,1,1,1,860.3616441
5,2,2,42,1,4,0,0,3,1,1,1,1294.501086
5,2,2,43,2,4,1,0,2,1,1,1,927.3127266
5,2,2,44,2,4,1,1,1,1,1,1,639.1964075
5,2,2,45,2,2,0,1,5,1,1,1,729.5680256
5,2,2,46,1,1,0,0,4,1,1,1,1169.609088
5,2,2,47,2,2,0,0,8,2,2,1,831.1860019
5,2,2,48,2,3,0,1,6,2,2,1,2394.40513
5,2,3,1,1,3,99,99,4,1,1,1,1096.341527
5,2,3,2,1,4,0,1,4,1,1,1,856.2316636
5,2,3,3,1,4,1,1,8,2,2,1,674.5570819
5,2,3,4,2,4,1,0,5,1,1,1,1028.208389
5,2,3,5,2,1,0,1,8,2,2,1,655.9564599
5,2,3,6,1,2,0,0,1,1,1,1,722.2278684
5,2,3,7,1,2,1,1,10,2,1,0,689.5182426
5,2,3,8,2,2,1,0,9,2,2,1,1274.658135
5,2,3,9,2,1,0,1,6,2,2,1,1042.975907
5,2,3,10,2,1,1,1,7,2,2,1,678.3186919
5,2,3,11,1,3,0,0,9,2,2,1,983.9459108
5,2,3,12,1,3,1,1,10,2,2,1,580.7668965
5,2,3,13,1,4,0,1,8,2,2,1,554.28334
5,2,3,14,2,1,0,0,6,2,2,1,672.1628346
5,2,3,15,1,1,1,0,10,2,2,1,633.7394598
5,2,3,16,1,2,0,1,2,1,1,1,779.8501062
5,2,3,17,2,2,1,0,5,1,1,1,545.9608617
5,2,3,18,2,3,0,1,1,1,1,1,640.660271
5,2,3,19,2,3,1,1,7,2,2,1,890.7039529
5,2,3,20,1,4,0,0,4,1,1,1,843.2944561
5,2,3,21,1,4,1,1,8,2,2,1,653.2242992
5,2,3,22,2,4,1,0,9,2,2,1,583.7282869
5,2,3,23,1,1,0,0,6,2,2,1,572.2664848
5,2,3,24,2,2,0,0,3,1,1,1,722.0348667
5,2,3,25,1,2,1,0,2,1,1,1,897.7440277
5,2,3,26,1,2,1,1,10,2,2,1,722.3327048
5,2,3,27,1,3,0,1,9,2,2,1,794.1399289
5,2,3,28,2,3,1,0,1,1,1,1,582.7581487
5,2,3,29,2,3,1,1,4,1,1,1,660.0277703
5,2,3,30,2,1,0,1,8,2,2,1,982.1409278
5,2,3,31,1,1,1,0,3,1,1,1,739.1847696
5,2,3,32,1,1,1,1,6,2,2,1,761.7659722
5,2,3,33,2,4,0,0,7,2,2,1,599.9824312
5,2,3,34,2,4,1,1,5,1,1,1,1092.311574
5,2,3,35,1,2,0,0,2,1,1,1,700.5946825
5,2,3,36,2,3,0,0,6,2,2,1,693.080439
5,2,3,37,1,3,1,0,10,2,2,1,990.0004587
5,2,3,38,1,3,1,1,3,1,1,1,947.0902744
5,2,3,39,1,1,0,1,1,1,2,0,857.2957381
5,2,3,40,2,1,1,0,5,1,1,1,1874.82908
5,2,3,41,2,2,0,1,2,1,1,1,772.9514164
5,2,3,42,1,4,0,0,4,1,1,1,850.2835555
5,2,3,43,2,4,1,0,1,1,1,1,580.2664384
5,2,3,44,2,4,1,1,5,1,1,1,538.2186708
5,2,3,45,2,2,0,1,4,1,1,1,720.8659558
5,2,3,46,1,1,0,0,3,1,1,1,608.6662265
5,2,3,47,2,2,0,0,8,2,2,1,1108.577901
5,2,3,48,2,3,0,1,9,2,2,1,2605.498049
5,2,4,1,1,3,99,99,4,1,1,1,1281.451668
5,2,4,2,1,4,0,1,4,1,1,1,794.4130809
5,2,4,3,1,4,1,1,8,2,2,1,735.6482213
5,2,4,4,2,4,1,0,5,1,1,1,574.5783376
5,2,4,5,2,1,0,1,9,2,2,1,803.6370887
5,2,4,6,1,2,0,0,2,1,1,1,679.9502301
5,2,4,7,1,2,1,1,10,2,2,1,1058.002471
5,2,4,8,2,2,1,0,8,2,2,1,547.1179101
5,2,4,9,2,1,0,1,6,2,2,1,1194.090813
5,2,4,10,2,1,1,1,8,2,2,1,767.3101234
5,2,4,11,1,3,0,0,9,2,2,1,860.9816865
5,2,4,12,1,3,1,1,6,2,2,1,743.0845588
5,2,4,13,1,4,0,1,10,2,2,1,685.8297295
5,2,4,14,2,1,0,0,7,2,2,1,806.3112206
5,2,4,15,1,1,1,0,6,2,2,1,618.1877523
5,2,4,16,1,2,0,1,3,1,1,1,677.4408869
5,2,4,17,2,2,1,0,2,1,1,1,823.2264437
5,2,4,18,2,3,0,1,4,1,1,1,569.8889084
5,2,4,19,2,3,1,1,8,2,1,0,511.0262658
5,2,4,20,1,4,0,0,3,1,1,1,654.3579439
5,2,4,21,1,4,1,1,9,2,1,0,712.3068741
5,2,4,22,2,4,1,0,10,2,2,1,816.1616828
5,2,4,23,1,1,0,0,7,2,2,1,827.9851228
5,2,4,24,2,2,0,0,5,1,1,1,1167.505305
5,2,4,25,1,2,1,0,1,1,1,1,741.302659
5,2,4,26,1,2,1,1,8,2,2,1,684.0872637
5,2,4,27,1,3,0,1,6,2,2,1,820.6478511
5,2,4,28,2,3,1,0,3,1,1,1,1000.425437
5,2,4,29,2,3,1,1,1,1,1,1,564.5608425
5,2,4,30,2,1,0,1,10,2,2,1,665.8813015
5,2,4,31,1,1,1,0,2,1,1,1,1195.849629
5,2,4,32,1,1,1,1,9,2,2,1,888.5139283
5,2,4,33,2,4,0,0,7,2,2,1,1081.09952
5,2,4,34,2,4,1,1,4,1,1,1,746.264599
5,2,4,35,1,2,0,0,5,1,1,1,953.1887444
5,2,4,36,2,3,0,0,10,2,2,1,815.4319953
5,2,4,37,1,3,1,0,6,2,2,1,1266.401701
5,2,4,38,1,3,1,1,3,1,1,1,652.3477763
5,2,4,39,1,1,0,1,1,1,1,1,910.2102725
5,2,4,40,2,1,1,0,4,1,1,1,1062.941648
5,2,4,41,2,2,0,1,5,1,1,1,1096.341527
5,2,4,42,1,4,0,0,2,1,1,1,697.3338511
5,2,4,43,2,4,1,0,3,1,1,1,553.9281142
5,2,4,44,2,4,1,1,4,1,1,1,600.2219201
5,2,4,45,2,2,0,1,1,1,1,1,756.3801981
5,2,4,46,1,1,0,0,2,1,1,1,562.7446386
5,2,4,47,2,2,0,0,8,2,2,1,1969.241551
5,2,4,48,2,3,0,1,9,2,2,1,1446.584847
5,2,5,1,1,3,99,99,4,1,1,1,1580.915976
5,2,5,2,1,4,0,1,1,1,1,1,642.4777575
5,2,5,3,1,4,1,1,8,2,2,1,540.9081916
5,2,5,4,2,4,1,0,5,1,1,1,740.1898534
5,2,5,5,2,1,0,1,9,2,2,1,1163.087104
5,2,5,6,1,2,0,0,4,1,1,1,801.4281488
5,2,5,7,1,2,1,1,7,2,2,1,1077.80214
5,2,5,8,2,2,1,0,8,2,2,1,686.565829
5,2,5,9,2,1,0,1,6,2,2,1,854.4205893
5,2,5,10,2,1,1,1,10,2,2,1,504.7761516
5,2,5,11,1,3,0,0,6,2,2,1,680.9655728
5,2,5,12,1,3,1,1,9,2,2,1,722.4452358
5,2,5,13,1,4,0,1,8,2,2,1,658.5792957
5,2,5,14,2,1,0,0,7,2,2,1,572.1424122
5,2,5,15,1,1,1,0,8,2,2,1,578.1305954
5,2,5,16,1,2,0,1,2,1,1,1,1103.313314
5,2,5,17,2,2,1,0,3,1,1,1,1247.91938
5,2,5,18,2,3,0,1,5,1,1,1,737.5737503
5,2,5,19,2,3,1,1,9,2,1,0,656.0911122
5,2,5,20,1,4,0,0,1,1,1,1,802.2264449
5,2,5,21,1,4,1,1,7,2,2,1,710.7618984
5,2,5,22,2,4,1,0,6,2,2,1,1678.046181
5,2,5,23,1,1,0,0,10,2,2,1,1935.941058
5,2,5,24,2,2,0,0,2,1,1,1,1598.700348
5,2,5,25,1,2,1,0,4,1,1,1,771.3865635
5,2,5,26,1,2,1,1,7,2,2,1,640.8430138
5,2,5,27,1,3,0,1,9,2,2,1,851.8852775
5,2,5,28,2,3,1,0,5,1,1,1,1150.131623
5,2,5,29,2,3,1,1,2,1,1,1,772.300276
5,2,5,30,2,1,0,1,10,2,2,1,761.5598259
5,2,5,31,1,1,1,0,3,1,1,1,2496.085624
5,2,5,32,1,1,1,1,6,2,2,1,881.3202856
5,2,5,33,2,4,0,0,8,2,2,1,729.8700316
5,2,5,34,2,4,1,1,1,1,1,1,729.5619342
5,2,5,35,1,2,0,0,4,1,1,1,1257.392816
5,2,5,36,2,3,0,0,7,2,2,1,723.6413977
5,2,5,37,1,3,1,0,8,2,2,1,786.2390408
5,2,5,38,1,3,1,1,2,1,1,1,943.3655334
5,2,5,39,1,1,0,1,1,1,1,1,1086.103138
5,2,5,40,2,1,1,0,3,1,1,1,854.6943823
5,2,5,41,2,2,0,1,4,1,1,1,1016.972931
5,2,5,42,1,4,0,0,5,1,1,1,2060.279699
5,2,5,43,2,4,1,0,4,1,1,1,606.9487676
5,2,5,44,2,4,1,1,5,1,1,1,674.7193059
5,2,5,45,2,2,0,1,1,1,1,1,916.7890027
5,2,5,46,1,1,0,0,3,1,1,1,684.2770595
5,2,5,47,2,2,0,0,9,2,1,0,748.8354973
5,2,5,48,2,3,0,1,10,2,2,1,931.1810969
5,2,6,1,1,3,99,99,4,1,1,1,1084.873954
5,2,6,2,1,4,0,1,5,1,1,1,757.5891837
5,2,6,3,1,4,1,1,8,2,2,1,691.7441746
5,2,6,4,2,4,1,0,3,1,1,1,588.5219115
5,2,6,5,2,1,0,1,6,2,2,1,769.6960352
5,2,6,6,1,2,0,0,1,1,1,1,1055.434457
5,2,6,7,1,2,1,1,8,2,2,1,745.3649929
5,2,6,8,2,2,1,0,9,2,2,1,752.7243861
5,2,6,9,2,1,0,1,10,2,2,1,566.6777701
5,2,6,10,2,1,1,1,6,2,2,1,700.1968168
5,2,6,11,1,3,0,0,9,2,1,0,1172.443841
5,2,6,12,1,3,1,1,8,2,2,1,745.4605319
5,2,6,13,1,4,0,1,10,2,2,1,751.800735
5,2,6,14,2,1,0,0,7,2,2,1,669.4277884
5,2,6,15,1,1,1,0,6,2,2,1,839.0288614
5,2,6,16,1,2,0,1,2,1,1,1,1233.799797
5,2,6,17,2,2,1,0,3,1,1,1,861.2724713
5,2,6,18,2,3,0,1,4,1,1,1,815.1610876
5,2,6,19,2,3,1,1,8,2,2,1,611.1181821
5,2,6,20,1,4,0,0,5,1,2,0,911.4554864
5,2,6,21,1,4,1,1,9,2,2,1,1366.955603
5,2,6,22,2,4,1,0,7,2,2,1,660.8295932
5,2,6,23,1,1,0,0,10,2,2,1,543.173237
5,2,6,24,2,2,0,0,1,1,1,1,717.0059213
5,2,6,25,1,2,1,0,2,1,1,1,644.5699988
5,2,6,26,1,2,1,1,6,2,2,1,719.1552296
5,2,6,27,1,3,0,1,10,2,2,1,758.8930677
5,2,6,28,2,3,1,0,5,1,1,1,795.6509208
5,2,6,29,2,3,1,1,2,1,1,1,1968.34451
5,2,6,30,2,1,0,1,8,2,2,1,765.6516552
5,2,6,31,1,1,1,0,3,1,1,1,626.7913976
5,2,6,32,1,1,1,1,7,2,2,1,821.9183923
5,2,6,33,2,4,0,0,9,2,2,1,1569.817735
5,2,6,34,2,4,1,1,4,1,2,0,886.2658748
5,2,6,35,1,2,0,0,1,1,1,1,847.5212583
5,2,6,36,2,3,0,0,7,2,2,1,2026.354034
5,2,6,37,1,3,1,0,8,2,2,1,637.6357223
5,2,6,38,1,3,1,1,4,1,1,1,776.5703592
5,2,6,39,1,1,0,1,1,1,1,1,2534.140948
5,2,6,40,2,1,1,0,2,1,1,1,1013.56847
5,2,6,41,2,2,0,1,5,1,1,1,904.9222816
5,2,6,42,1,4,0,0,3,1,1,1,649.4097898
5,2,6,43,2,4,1,0,5,1,1,1,939.616106
5,2,6,44,2,4,1,1,4,1,1,1,786.193836
5,2,6,45,2,2,0,1,2,1,1,1,871.2874018
5,2,6,46,1,1,0,0,1,1,1,1,624.5741218
5,2,6,47,2,2,0,0,10,2,2,1,756.2509959
5,2,6,48,2,3,0,1,6,2,2,1,2202.924008
5,2,7,1,1,3,99,99,4,1,1,1,1478.671545
5,2,7,2,1,4,0,1,3,1,1,1,727.7912556
5,2,7,3,1,4,1,1,8,2,2,1,1127.159608
5,2,7,4,2,4,1,0,2,1,1,1,854.9579163
5,2,7,5,2,1,0,1,10,2,2,1,969.140562
5,2,7,6,1,2,0,0,4,1,1,1,999.2042684
5,2,7,7,1,2,1,1,6,2,2,1,1403.1181
5,2,7,8,2,2,1,0,9,2,2,1,815.8359523
5,2,7,9,2,1,0,1,8,2,2,1,978.3421278
5,2,7,10,2,1,1,1,7,2,2,1,655.1366833
5,2,7,11,1,3,0,0,6,2,2,1,776.7364306
5,2,7,12,1,3,1,1,10,2,2,1,685.9521992
5,2,7,13,1,4,0,1,9,2,2,1,846.0474559
5,2,7,14,2,1,0,0,8,2,2,1,520.8398588
5,2,7,15,1,1,1,0,7,2,2,1,504.3731565
5,2,7,16,1,2,0,1,1,1,1,1,768.420364
5,2,7,17,2,2,1,0,5,1,1,1,709.8844138
5,2,7,18,2,3,0,1,2,1,1,1,565.0927194
5,2,7,19,2,3,1,1,10,2,2,1,626.2034154
5,2,7,20,1,4,0,0,1,1,1,1,853.0971489
5,2,7,21,1,4,1,1,6,2,2,1,638.4503692
5,2,7,22,2,4,1,0,9,2,2,1,608.7457356
5,2,7,23,1,1,0,0,8,2,2,1,540.0823238
5,2,7,24,2,2,0,0,4,1,1,1,1506.857813
5,2,7,25,1,2,1,0,3,1,1,1,617.9671788
5,2,7,26,1,2,1,1,10,2,2,1,573.3199792
5,2,7,27,1,3,0,1,6,2,2,1,977.8859129
5,2,7,28,2,3,1,0,4,1,1,1,687.6901765
5,2,7,29,2,3,1,1,5,1,1,1,1240.298056
5,2,7,30,2,1,0,1,8,2,2,1,650.4632842
5,2,7,31,1,1,1,0,2,1,1,1,1410.9507
5,2,7,32,1,1,1,1,7,2,2,1,1399.16958
5,2,7,33,2,4,0,0,9,2,2,1,1162.034892
5,2,7,34,2,4,1,1,1,1,1,1,1111.336031
5,2,7,35,1,2,0,0,3,1,1,1,599.2447285
5,2,7,36,2,3,0,0,7,2,2,1,650.3215788
5,2,7,37,1,3,1,0,8,2,2,1,1979.365166
5,2,7,38,1,3,1,1,4,1,1,1,728.6139173
5,2,7,39,1,1,0,1,1,1,1,1,1071.277271
5,2,7,40,2,1,1,0,3,1,1,1,1080.716723
5,2,7,41,2,2,0,1,5,1,1,1,1113.412563
5,2,7,42,1,4,0,0,2,1,1,1,928.2453544
5,2,7,43,2,4,1,0,3,1,1,1,654.9606735
5,2,7,44,2,4,1,1,5,1,1,1,1544.842927
5,2,7,45,2,2,0,1,2,1,1,1,862.7145342
5,2,7,46,1,1,0,0,4,1,1,1,960.8264193
5,2,7,47,2,2,0,0,10,2,2,1,662.4197736
5,2,7,48,2,3,0,1,6,2,2,1,1039.718282
5,2,8,1,1,3,99,99,4,1,1,1,787.5172764
5,2,8,2,1,4,0,1,1,1,1,1,599.1216176
5,2,8,3,1,4,1,1,8,2,2,1,787.1117163
5,2,8,4,2,4,1,0,3,1,1,1,775.2510866
5,2,8,5,2,1,0,1,6,2,2,1,2620.609571
5,2,8,6,1,2,0,0,2,1,1,1,1007.297838
5,2,8,7,1,2,1,1,8,2,2,1,1370.863728
5,2,8,8,2,2,1,0,9,2,2,1,872.1687335
5,2,8,9,2,1,0,1,10,2,2,1,696.7429835
5,2,8,10,2,1,1,1,7,2,2,1,536.9067723
5,2,8,11,1,3,0,0,9,2,2,1,703.3213929
5,2,8,12,1,3,1,1,6,2,2,1,566.5729335
5,2,8,13,1,4,0,1,10,2,2,1,931.4757292
5,2,8,14,2,1,0,0,8,2,2,1,610.389777
5,2,8,15,1,1,1,0,10,2,2,1,581.4507382
5,2,8,16,1,2,0,1,5,1,1,1,561.6616488
5,2,8,17,2,2,1,0,1,1,1,1,503.1067829
5,2,8,18,2,3,0,1,5,1,1,1,1182.786746
5,2,8,19,2,3,1,1,8,2,2,1,603.5385362
5,2,8,20,1,4,0,0,2,1,1,1,1174.120584
5,2,8,21,1,4,1,1,6,2,2,1,722.8148885
5,2,8,22,2,4,1,0,9,2,2,1,537.7041064
5,2,8,23,1,1,0,0,7,2,2,1,599.9433177
5,2,8,24,2,2,0,0,4,1,2,0,651.7844805
5,2,8,25,1,2,1,0,3,1,1,1,1276.114946
5,2,8,26,1,2,1,1,9,2,1,0,901.4812722
5,2,8,27,1,3,0,1,7,2,2,1,700.2872264
5,2,8,28,2,3,1,0,4,1,1,1,676.0850656
5,2,8,29,2,3,1,1,5,1,1,1,733.2607068
5,2,8,30,2,1,0,1,10,2,2,1,994.8463407
5,2,8,31,1,1,1,0,1,1,1,1,1182.814959
5,2,8,32,1,1,1,1,8,2,2,1,643.3478685
5,2,8,33,2,4,0,0,6,2,2,1,693.456504
5,2,8,34,2,4,1,1,3,1,1,1,797.8120914
5,2,8,35,1,2,0,0,2,1,1,1,1002.058578
5,2,8,36,2,3,0,0,8,2,2,1,1373.809088
5,2,8,37,1,3,1,0,7,2,2,1,633.9350266
5,2,8,38,1,3,1,1,3,1,2,0,1228.217815
5,2,8,39,1,1,0,1,4,1,1,1,1222.898726
5,2,8,40,2,1,1,0,1,1,1,1,889.6527027
5,2,8,41,2,2,0,1,5,1,1,1,865.7544719
5,2,8,42,1,4,0,0,2,1,1,1,683.192146
5,2,8,43,2,4,1,0,1,1,1,1,675.438093
5,2,8,44,2,4,1,1,4,1,1,1,740.0725135
5,2,8,45,2,2,0,1,3,1,1,1,602.4962624
5,2,8,46,1,1,0,0,5,1,1,1,1197.841523
5,2,8,47,2,2,0,0,10,2,2,1,1282.357045
5,2,8,48,2,3,0,1,9,2,2,1,1258.293704
5,2,9,1,1,3,99,99,4,1,1,1,686.2644644
5,2,9,2,1,4,0,1,1,1,1,1,830.7099098
5,2,9,3,1,4,1,1,8,2,1,0,561.9482659
5,2,9,4,2,4,1,0,3,1,1,1,623.1035255
5,2,9,5,2,1,0,1,6,2,2,1,713.6447416
5,2,9,6,1,2,0,0,4,1,1,1,665.0823639
5,2,9,7,1,2,1,1,9,2,2,1,754.0911078
5,2,9,8,2,2,1,0,7,2,2,1,630.9899867
5,2,9,9,2,1,0,1,10,2,2,1,641.8856077
5,2,9,10,2,1,1,1,9,2,2,1,732.490944
5,2,9,11,1,3,0,0,8,2,2,1,922.7531408
5,2,9,12,1,3,1,1,6,2,2,1,601.255537
5,2,9,13,1,4,0,1,7,2,2,1,917.4183421
5,2,9,14,2,1,0,0,10,2,2,1,683.6432314
5,2,9,15,1,1,1,0,8,2,2,1,596.3259779
5,2,9,16,1,2,0,1,2,1,1,1,1352.295807
5,2,9,17,2,2,1,0,4,1,1,1,1277.915761
5,2,9,18,2,3,0,1,3,1,1,1,718.8378347
5,2,9,19,2,3,1,1,7,2,2,1,1141.798885
5,2,9,20,1,4,0,0,1,1,1,1,724.0264392
5,2,9,21,1,4,1,1,9,2,2,1,675.1825742
5,2,9,22,2,4,1,0,6,2,2,1,587.7191266
5,2,9,23,1,1,0,0,10,2,2,1,672.4706113
5,2,9,24,2,2,0,0,2,1,1,1,1337.341058
5,2,9,25,1,2,1,0,5,1,1,1,1087.474348
5,2,9,26,1,2,1,1,6,2,2,1,1160.109043
5,2,9,27,1,3,0,1,10,2,2,1,708.8559261
5,2,9,28,2,3,1,0,2,1,2,0,1092.278873
5,2,9,29,2,3,1,1,3,1,1,1,860.4648777
5,2,9,30,2,1,0,1,8,2,2,1,2150.237421
5,2,9,31,1,1,1,0,4,1,1,1,843.3560114
5,2,9,32,1,1,1,1,7,2,2,1,2326.168759
5,2,9,33,2,4,0,0,9,2,2,1,2572.982387
5,2,9,34,2,4,1,1,1,1,1,1,898.1778007
5,2,9,35,1,2,0,0,5,1,1,1,1217.450114
5,2,9,36,2,3,0,0,10,2,2,1,2284.994628
5,2,9,37,1,3,1,0,9,2,2,1,885.1341538
5,2,9,38,1,3,1,1,1,1,1,1,909.2061503
5,2,9,39,1,1,0,1,2,1,1,1,861.0922936
5,2,9,40,2,1,1,0,4,1,1,1,1118.787116
5,2,9,41,2,2,0,1,5,1,1,1,3365.82292
5,2,9,42,1,4,0,0,3,1,1,1,666.4651157
5,2,9,43,2,4,1,0,2,1,1,1,667.4326891
5,2,9,44,2,4,1,1,1,1,1,1,884.7225022
5,2,9,45,2,2,0,1,4,1,1,1,1100.530498
5,2,9,46,1,1,0,0,5,1,1,1,1516.344714
5,2,9,47,2,2,0,0,7,2,2,1,867.5825379
5,2,9,48,2,3,0,1,8,2,2,1,1372.587278
5,2,10,1,1,3,99,99,4,1,1,1,1466.894272
5,2,10,2,1,4,0,1,3,1,1,1,892.3438264
5,2,10,3,1,4,1,1,8,2,2,1,692.5790193
5,2,10,4,2,4,1,0,1,1,1,1,692.988106
5,2,10,5,2,1,0,1,10,2,2,1,628.6694775
5,2,10,6,1,2,0,0,2,1,1,1,1647.714452
5,2,10,7,1,2,1,1,8,2,2,1,641.0972502
5,2,10,8,2,2,1,0,9,2,2,1,899.8702527
5,2,10,9,2,1,0,1,7,2,2,1,2339.428811
5,2,10,10,2,1,1,1,8,2,2,1,649.8993475
5,2,10,11,1,3,0,0,10,2,2,1,587.0548417
5,2,10,12,1,3,1,1,9,2,2,1,543.2482576
5,2,10,13,1,4,0,1,6,2,2,1,781.9455536
5,2,10,14,2,1,0,0,7,2,2,1,578.1626555
5,2,10,15,1,1,1,0,6,2,2,1,614.9650721
5,2,10,16,1,2,0,1,4,1,1,1,994.0047634
5,2,10,17,2,2,1,0,2,1,1,1,733.978532
5,2,10,18,2,3,0,1,1,1,1,1,1188.059348
5,2,10,19,2,3,1,1,10,2,2,1,712.3068741
5,2,10,20,1,4,0,0,5,1,2,0,928.5791002
5,2,10,21,1,4,1,1,9,2,1,0,1118.551474
5,2,10,22,2,4,1,0,7,2,2,1,836.9981756
5,2,10,23,1,1,0,0,8,2,2,1,1023.101217
5,2,10,24,2,2,0,0,3,1,1,1,1202.11385
5,2,10,25,1,2,1,0,4,1,1,1,1173.937841
5,2,10,26,1,2,1,1,7,2,2,1,778.3493735
5,2,10,27,1,3,0,1,10,2,2,1,639.7564972
5,2,10,28,2,3,1,0,1,1,1,1,712.23538
5,2,10,29,2,3,1,1,3,1,1,1,1183.870057
5,2,10,30,2,1,0,1,6,2,2,1,740.0125612
5,2,10,31,1,1,1,0,2,1,1,1,1426.631931
5,2,10,32,1,1,1,1,8,2,2,1,765.260522
5,2,10,33,2,4,0,0,9,2,2,1,1249.837856
5,2,10,34,2,4,1,1,5,1,1,1,859.2161373
5,2,10,35,1,2,0,0,4,1,1,1,1140.847662
5,2,10,36,2,3,0,0,8,2,2,1,1571.251462
5,2,10,37,1,3,1,0,10,2,2,1,912.1056648
5,2,10,38,1,3,1,1,2,1,1,1,1447.620388
5,2,10,39,1,1,0,1,4,1,1,1,2106.076252
5,2,10,40,2,1,1,0,3,1,1,1,978.1702859
5,2,10,41,2,2,0,1,1,1,1,1,869.8184085
5,2,10,42,1,4,0,0,5,1,1,1,895.2228224
5,2,10,43,2,4,1,0,2,1,1,1,623.2032324
5,2,10,44,2,4,1,1,3,1,1,1,562.3573526
5,2,10,45,2,2,0,1,5,1,1,1,839.4863589
5,2,10,46,1,1,0,0,4,1,1,1,537.8009279
5,2,10,47,2,2,0,0,9,2,1,0,767.8256494
5,2,10,48,2,3,0,1,7,2,2,1,1260.686349
6,1,1,1,1,2,99,99,5,1,1,1,1313.168072
6,1,1,2,1,2,1,1,3,1,1,1,646.7221926
6,1,1,3,1,2,1,1,9,2,2,1,985.1629117
6,1,1,4,2,4,0,0,6,2,2,1,902.5049508
6,1,1,5,2,1,0,1,7,2,2,1,806.6507371
6,1,1,6,1,3,0,0,8,2,2,1,754.9509592
6,1,1,7,2,4,0,0,2,1,1,1,641.0344124
6,1,1,8,2,4,1,1,10,2,1,0,539.6344445
6,1,1,9,1,4,1,0,4,1,1,1,1226.626673
6,1,1,10,1,3,0,1,7,2,2,1,933.6696009
6,1,1,11,2,3,1,0,8,2,2,1,756.7193939
6,1,1,12,2,1,0,1,1,1,1,1,1338.74016
6,1,1,13,2,1,1,1,4,1,1,1,1017.430108
6,1,1,14,1,1,1,0,6,2,2,1,805.2631766
6,1,1,15,2,3,0,0,3,1,1,1,1113.866533
6,1,1,16,2,3,1,1,2,1,1,1,753.6079623
6,1,1,17,2,2,0,1,1,1,1,1,880.1584281
6,1,1,18,1,2,1,0,5,1,1,1,841.7744874
6,1,1,19,2,2,1,0,10,2,2,1,964.8858677
6,1,1,20,2,4,0,1,2,1,1,1,769.9906672
6,1,1,21,1,4,1,0,9,2,2,1,2440.070237
6,1,1,22,2,1,0,0,1,1,1,1,1611.055665
6,1,1,23,1,3,0,0,3,1,1,1,783.0689391
6,1,1,24,1,1,0,1,4,1,1,1,780.3316489
6,1,1,25,2,3,0,0,5,1,1,1,1177.509976
6,1,1,26,2,2,0,1,10,2,2,1,783.5572143
6,1,1,27,2,2,1,1,4,1,1,1,1348.406277
6,1,1,28,1,2,1,0,3,1,1,1,1250.493485
6,1,1,29,1,4,0,1,6,2,2,1,2708.910428
6,1,1,30,2,4,1,0,7,2,2,1,909.1144586
6,1,1,31,2,4,1,1,5,1,1,1,669.8230894
6,1,1,32,1,1,0,0,2,1,1,1,1022.979068
6,1,1,33,1,3,0,1,9,2,2,1,987.0150231
6,1,1,34,2,3,1,0,8,2,2,1,583.9735465
6,1,1,35,2,3,1,1,1,1,1,1,836.4047434
6,1,1,36,1,1,0,0,10,2,2,1,655.6685602
6,1,1,37,2,1,1,0,9,2,2,1,905.6673581
6,1,1,38,1,4,0,0,6,2,2,1,1042.216083
6,1,1,39,1,4,1,1,7,2,2,1,965.1737674
6,1,1,40,1,4,1,1,8,2,2,1,938.7270799
6,1,1,41,2,2,0,0,10,2,2,1,785.2127973
6,1,1,42,2,1,0,1,7,2,2,1,1102.296047
6,1,1,43,1,1,1,0,2,1,1,1,2214.546752
6,1,1,44,1,1,1,1,8,2,2,1,1426.280552
6,1,1,45,1,3,0,1,1,1,2,0,1397.860246
6,1,1,46,2,2,0,0,5,1,1,1,1049.955709
6,1,1,47,1,2,1,0,9,2,2,1,1004.020335
6,1,1,48,1,3,0,1,4,1,1,1,1248.486203
6,1,2,1,1,2,99,99,5,1,1,1,1329.232741
6,1,2,2,1,2,1,1,2,1,1,1,2536.995579
6,1,2,3,1,2,1,1,9,2,2,1,967.8879743
6,1,2,4,2,4,0,0,8,2,2,1,756.9418908
6,1,2,5,2,1,0,1,10,2,2,1,554.9293507
6,1,2,6,1,3,0,0,7,2,2,1,753.6550905
6,1,2,7,2,4,0,0,5,1,1,1,759.9289294
6,1,2,8,2,4,1,1,9,2,2,1,1109.82568
6,1,2,9,1,4,1,0,1,1,1,1,718.354689
6,1,2,10,1,3,0,1,8,2,2,1,1166.071258
6,1,2,11,2,3,1,0,6,2,2,1,891.4243432
6,1,2,12,2,1,0,1,4,1,1,1,1180.407246
6,1,2,13,2,1,1,1,1,1,1,1,1250.407884
6,1,2,14,1,1,1,0,10,2,2,1,716.784386
6,1,2,15,2,3,0,0,4,1,1,1,1083.781667
6,1,2,16,2,3,1,1,2,1,1,1,1421.089703
6,1,2,17,2,2,0,1,3,1,1,1,920.281308
6,1,2,18,1,2,1,0,5,1,1,1,1159.909629
6,1,2,19,2,2,1,0,9,2,2,1,1206.64362
6,1,2,20,2,4,0,1,4,1,1,1,850.1062633
6,1,2,21,1,4,1,0,7,2,2,1,933.0155752
6,1,2,22,2,1,0,0,1,1,1,1,971.7012013
6,1,2,23,1,3,0,0,5,1,1,1,1561.604261
6,1,2,24,1,1,0,1,2,1,1,1,1751.850428
6,1,2,25,2,3,0,0,3,1,1,1,694.1403458
6,1,2,26,2,2,0,1,6,2,2,1,1358.877423
6,1,2,27,2,2,1,1,4,1,1,1,861.1669936
6,1,2,28,1,2,1,0,3,1,1,1,895.8720393
6,1,2,29,1,4,0,1,10,2,2,1,816.5970589
6,1,2,30,2,4,1,0,9,2,1,0,971.7608332
6,1,2,31,2,4,1,1,5,1,1,1,753.6833033
6,1,2,32,1,1,0,0,2,1,1,1,727.9496321
6,1,2,33,1,3,0,1,8,2,2,1,758.9446844
6,1,2,34,2,3,1,0,7,2,2,1,781.5181925
6,1,2,35,2,3,1,1,1,1,1,1,1018.323623
6,1,2,36,1,1,0,0,10,2,2,1,629.6162119
6,1,2,37,2,1,1,0,7,2,2,1,824.9637801
6,1,2,38,1,4,0,0,6,2,2,1,932.711004
6,1,2,39,1,4,1,1,8,2,2,1,715.5487901
6,1,2,40,1,4,1,1,9,2,2,1,962.908081
6,1,2,41,2,2,0,0,6,2,2,1,1041.428687
6,1,2,42,2,1,0,1,9,2,2,1,891.9677616
6,1,2,43,1,1,1,0,5,1,1,1,1084.848627
6,1,2,44,1,1,1,1,10,2,2,1,1046.147612
6,1,2,45,1,3,0,1,2,1,1,1,1449.123365
6,1,2,46,2,2,0,0,3,1,1,1,1066.986028
6,1,2,47,1,2,1,0,8,2,2,1,724.9481669
6,1,2,48,1,3,0,1,1,1,1,1,732.491585
6,1,3,1,1,2,99,99,5,1,1,1,4180.336073
6,1,3,2,1,2,1,1,4,1,1,1,1890.239402
6,1,3,3,1,2,1,1,9,2,2,1,995.0832648
6,1,3,4,2,4,0,0,7,2,2,1,928.2767735
6,1,3,5,2,1,0,1,10,2,2,1,823.4216899
6,1,3,6,1,3,0,0,6,2,2,1,1075.100116
6,1,3,7,2,4,0,0,2,1,1,1,1700.878735
6,1,3,8,2,4,1,1,8,2,1,0,876.3955357
6,1,3,9,1,4,1,0,3,1,1,1,1669.872782
6,1,3,10,1,3,0,1,9,2,2,1,1911.879962
6,1,3,11,2,3,1,0,6,2,2,1,944.1176632
6,1,3,12,2,1,0,1,5,1,1,1,999.124439
6,1,3,13,2,1,1,1,2,1,1,1,850.7917079
6,1,3,14,1,1,1,0,10,2,2,1,740.2475616
6,1,3,15,2,3,0,0,4,1,1,1,1051.036455
6,1,3,16,2,3,1,1,5,1,1,1,917.5680629
6,1,3,17,2,2,0,1,3,1,1,1,1004.795869
6,1,3,18,1,2,1,0,1,1,1,1,824.3145635
6,1,3,19,2,2,1,0,7,2,2,1,923.9233341
6,1,3,20,2,4,0,1,2,1,1,1,1147.808228
6,1,3,21,1,4,1,0,8,2,2,1,1018.510213
6,1,3,22,2,1,0,0,4,1,1,1,1454.614938
6,1,3,23,1,3,0,0,3,1,1,1,880.4896087
6,1,3,24,1,1,0,1,5,1,1,1,922.187601
6,1,3,25,2,3,0,0,1,1,1,1,785.5279478
6,1,3,26,2,2,0,1,7,2,2,1,750.4314487
6,1,3,27,2,2,1,1,3,1,1,1,996.5221216
6,1,3,28,1,2,1,0,1,1,1,1,681.0944544
6,1,3,29,1,4,0,1,8,2,2,1,849.7994482
6,1,3,30,2,4,1,0,10,2,2,1,700.0015709
6,1,3,31,2,4,1,1,5,1,1,1,1003.330081
6,1,3,32,1,1,0,0,4,1,1,1,2031.871896
6,1,3,33,1,3,0,1,9,2,2,1,1090.731332
6,1,3,34,2,3,1,0,6,2,2,1,1147.416133
6,1,3,35,2,3,1,1,2,1,1,1,1138.690019
6,1,3,36,1,1,0,0,8,2,2,1,1489.616859
6,1,3,37,2,1,1,0,9,2,2,1,906.3845421
6,1,3,38,1,4,0,0,6,2,2,1,1250.91251
6,1,3,39,1,4,1,1,10,2,2,1,844.1712996
6,1,3,40,1,4,1,1,7,2,2,1,903.2580424
6,1,3,41,2,2,0,0,10,2,2,1,2791.486956
6,1,3,42,2,1,0,1,6,2,2,1,1364.823928
6,1,3,43,1,1,1,0,4,1,1,1,858.722412
6,1,3,44,1,1,1,1,9,2,2,1,828.6314541
6,1,3,45,1,3,0,1,3,1,1,1,1048.199457
6,1,3,46,2,2,0,0,2,1,1,1,1025.958092
6,1,3,47,1,2,1,0,8,2,2,1,669.4047051
6,1,3,48,1,3,0,1,1,1,1,1,846.6841693
6,1,4,1,1,2,99,99,5,1,1,1,1216.533195
6,1,4,2,1,2,1,1,3,1,1,1,843.5143884
6,1,4,3,1,2,1,1,9,2,2,1,862.2980735
6,1,4,4,2,4,0,0,8,2,2,1,865.1299411
6,1,4,5,2,1,0,1,10,2,2,1,706.0323942
6,1,4,6,1,3,0,0,7,2,2,1,867.058676
6,1,4,7,2,4,0,0,4,1,1,1,787.8917383
6,1,4,8,2,4,1,1,6,2,2,1,1680.427605
6,1,4,9,1,4,1,0,2,1,1,1,1321.656942
6,1,4,10,1,3,0,1,7,2,2,1,897.0316527
6,1,4,11,2,3,1,0,8,2,2,1,890.3054462
6,1,4,12,2,1,0,1,5,1,2,0,1187.09434
6,1,4,13,2,1,1,1,3,1,1,1,2391.50273
6,1,4,14,1,1,1,0,10,2,2,1,668.4730388
6,1,4,15,2,3,0,0,4,1,1,1,1142.115318
6,1,4,16,2,3,1,1,2,1,1,1,820.8027014
6,1,4,17,2,2,0,1,5,1,1,1,1936.664975
6,1,4,18,1,2,1,0,1,1,1,1,1911.042873
6,1,4,19,2,2,1,0,9,2,2,1,1118.063519
6,1,4,20,2,4,0,1,4,1,1,1,973.1499967
6,1,4,21,1,4,1,0,6,2,2,1,1458.803267
6,1,4,22,2,1,0,0,1,1,1,1,1692.751823
6,1,4,23,1,3,0,0,5,1,2,0,1789.368105
6,1,4,24,1,1,0,1,3,1,1,1,1977.659889
6,1,4,25,2,3,0,0,2,1,1,1,934.7824065
6,1,4,26,2,2,0,1,10,2,2,1,766.0052776
6,1,4,27,2,2,1,1,1,1,1,1,931.2170041
6,1,4,28,1,2,1,0,2,1,1,1,938.0217579
6,1,4,29,1,4,0,1,8,2,2,1,944.7255225
6,1,4,30,2,4,1,0,9,2,2,1,1967.321793
6,1,4,31,2,4,1,1,3,1,1,1,1157.017168
6,1,4,32,1,1,0,0,5,1,1,1,1146.584174
6,1,4,33,1,3,0,1,7,2,2,1,1081.285789
6,1,4,34,2,3,1,0,6,2,2,1,1842.317585
6,1,4,35,2,3,1,1,4,1,1,1,1228.324575
6,1,4,36,1,1,0,0,7,2,2,1,831.688063
6,1,4,37,2,1,1,0,6,2,2,1,1466.734933
6,1,4,38,1,4,0,0,9,2,2,1,2027.476137
6,1,4,39,1,4,1,1,10,2,2,1,822.5063744
6,1,4,40,1,4,1,1,8,2,2,1,1040.890078
6,1,4,41,2,2,0,0,10,2,2,1,1036.362873
6,1,4,42,2,1,0,1,9,2,2,1,1094.667029
6,1,4,43,1,1,1,0,1,1,1,1,759.6400678
6,1,4,44,1,1,1,1,8,2,2,1,1069.034668
6,1,4,45,1,3,0,1,2,1,1,1,2134.332091
6,1,4,46,2,2,0,0,5,1,1,1,1541.538493
6,1,4,47,1,2,1,0,6,2,2,1,1060.470777
6,1,4,48,1,3,0,1,3,1,1,1,830.1700179
6,1,5,1,1,2,99,99,5,1,1,1,2318.84912
6,1,5,2,1,2,1,1,4,1,1,1,2207.011669
6,1,5,3,1,2,1,1,9,2,2,1,754.5851537
6,1,5,4,2,4,0,0,9,2,2,1,1127.872945
6,1,5,5,2,1,0,1,7,2,2,1,1071.184297
6,1,5,6,1,3,0,0,8,2,2,1,1031.694603
6,1,5,7,2,4,0,0,3,1,1,1,1162.711681
6,1,5,8,2,4,1,1,10,2,1,0,760.3758469
6,1,5,9,1,4,1,0,2,1,1,1,3014.338874
6,1,5,10,1,3,0,1,9,2,2,1,1969.783367
6,1,5,11,2,3,1,0,8,2,2,1,695.1345289
6,1,5,12,2,1,0,1,1,1,1,1,1112.390487
6,1,5,13,2,1,1,1,3,1,1,1,840.5853787
6,1,5,14,1,1,1,0,10,2,2,1,803.4187595
6,1,5,15,2,3,0,0,1,1,1,1,871.7465021
6,1,5,16,2,3,1,1,4,1,1,1,1329.144255
6,1,5,17,2,2,0,1,5,1,1,1,1520.36569
6,1,5,18,1,2,1,0,2,1,1,1,1472.087686
6,1,5,19,2,2,1,0,6,2,2,1,1449.05123
6,1,5,20,2,4,0,1,3,1,1,1,1347.562456
6,1,5,21,1,4,1,0,7,2,2,1,1409.837895
6,1,5,22,2,1,0,0,1,1,1,1,1957.571679
6,1,5,23,1,3,0,0,5,1,1,1,1531.078889
6,1,5,24,1,1,0,1,4,1,1,1,1402.453815
6,1,5,25,2,3,0,0,2,1,1,1,1270.70737
6,1,5,26,2,2,0,1,10,2,2,1,1952.908219
6,1,5,27,2,2,1,1,3,1,1,1,2886.271005
6,1,5,28,1,2,1,0,4,1,1,1,1366.63404
6,1,5,29,1,4,0,1,6,2,2,1,2596.798544
6,1,5,30,2,4,1,0,7,2,1,0,897.7424249
6,1,5,31,2,4,1,1,2,1,1,1,1705.244678
6,1,5,32,1,1,0,0,5,1,1,1,824.6678654
6,1,5,33,1,3,0,1,8,2,2,1,971.8166175
6,1,5,34,2,3,1,0,9,2,2,1,880.4819146
6,1,5,35,2,3,1,1,1,1,1,1,857.1774364
6,1,5,36,1,1,0,0,7,2,2,1,1195.096858
6,1,5,37,2,1,1,0,10,2,2,1,1103.368457
6,1,5,38,1,4,0,0,9,2,2,1,2334.72784
6,1,5,39,1,4,1,1,6,2,2,1,2742.390779
6,1,5,40,1,4,1,1,8,2,2,1,1020.734221
6,1,5,41,2,2,0,0,6,2,2,1,1015.868461
6,1,5,42,2,1,0,1,8,2,2,1,763.3471759
