SID,CB,block,trial,memrich,mondrich,eye,loc,image,urban,resp,corr,RT,cond,phase,locrep,eyerep
1,1,1,1,1,3,2,1,7,2,2,1,1398.456112,1,1,99,99
1,1,1,2,1,3,1,1,2,1,1,1,1619.424783,1,1,0,0
1,1,1,3,1,3,2,4,3,1,1,1,1743.408037,3,1,0,0
1,1,1,4,1,3,2,1,5,1,1,1,2119.115243,1,1,0,1
1,1,1,5,1,3,2,1,1,1,1,1,1471.88503,1,1,1,1
1,1,1,6,1,3,1,1,1,1,1,1,1993.810151,1,1,0,0
1,1,1,7,1,3,2,3,6,2,2,1,1479.693274,2,1,1,0
1,1,1,8,1,3,1,4,4,1,1,1,2441.822888,3,1,0,0
1,1,1,9,1,3,2,4,10,2,2,1,1710.153347,3,1,0,0
1,1,1,10,1,3,1,1,2,1,1,1,3014.712393,1,1,0,0
1,1,1,11,1,3,2,2,5,1,1,1,1091.070965,3,1,0,0
1,1,1,12,1,3,2,1,3,1,1,1,2212.917732,1,1,0,1
1,1,1,13,1,3,1,2,9,2,2,1,2713.357436,3,1,0,0
1,1,1,14,1,3,1,1,8,2,2,1,4090.698106,1,1,0,1
1,1,1,15,1,3,1,2,6,2,2,1,3780.671525,3,1,0,1
1,1,1,16,1,3,2,1,5,1,1,1,1675.417479,1,1,0,0
1,1,1,17,1,3,1,3,7,2,2,1,6014.279902,2,1,1,0
1,1,1,18,1,3,2,3,4,1,1,1,1066.890254,2,1,0,0
1,1,1,19,1,3,1,2,3,1,1,1,3877.870464,3,1,0,0
1,1,1,20,1,3,1,4,10,2,2,1,7288.8265,3,1,0,1
1,1,1,21,1,3,2,2,9,2,2,1,1330.245943,3,1,1,0
1,1,1,22,1,3,2,2,7,2,2,1,1010.891146,3,1,1,1
1,1,1,23,1,3,2,1,10,2,2,1,1503.550499,1,1,0,1
1,1,1,24,1,3,2,1,8,2,2,1,952.3176108,1,1,1,1
1,1,1,25,1,3,2,1,2,1,1,1,1063.375823,1,1,1,1
1,1,1,26,1,3,2,3,6,2,2,1,1522.437121,2,1,0,1
1,1,1,27,1,3,1,3,1,1,1,1,5979.543714,2,1,0,0
1,1,1,28,1,3,1,1,5,1,1,1,1193.498911,1,1,0,1
1,1,1,29,1,3,2,1,9,2,2,1,1535.614476,1,1,0,0
1,1,1,30,1,3,1,1,10,2,2,1,7071.463952,1,1,0,0
1,1,1,31,1,3,2,3,3,1,1,1,1402.217407,2,1,1,0
1,1,1,32,1,3,2,1,6,2,2,1,1782.896498,1,1,0,1
1,1,1,33,1,3,1,1,8,2,2,1,9637.899754,1,1,0,0
1,1,1,34,1,3,2,4,9,2,2,1,1169.290307,3,1,0,0
1,1,1,35,1,3,1,1,7,2,2,1,4463.842746,1,1,0,0
1,1,1,36,1,3,1,3,2,1,1,1,9132.153457,2,1,0,1
1,1,1,37,1,3,1,4,8,2,2,1,8428.48363,3,1,0,1
1,1,1,38,1,3,1,4,1,1,1,1,2200.803491,3,1,1,1
1,1,1,39,1,3,2,1,7,2,2,1,1134.153047,1,1,0,0
1,1,1,40,1,3,1,1,4,1,1,1,1125.5651,1,1,0,0
1,1,1,41,1,3,1,1,10,2,2,1,4342.489386,1,1,1,1
1,1,1,42,1,3,2,2,1,1,1,1,1117.671896,3,1,0,0
1,1,1,43,1,3,1,2,2,1,1,1,4662.52546,3,1,0,0
1,1,1,44,1,3,1,1,6,2,2,1,1313.546783,1,1,0,1
1,1,1,45,1,3,2,1,4,1,1,1,1530.457283,1,1,0,0
1,1,1,46,1,3,1,3,9,2,2,1,8835.607198,2,1,1,0
1,1,1,47,1,3,1,1,3,1,1,1,7432.126301,1,1,0,1
1,1,1,48,1,3,2,4,5,1,1,1,2828.041008,3,1,0,0
1,1,2,1,1,3,2,1,8,2,2,1,2248.414386,1,1,0,1
1,1,2,2,1,3,1,1,1,1,1,1,1683.418084,1,1,0,0
1,1,2,3,1,3,2,4,3,1,1,1,1045.520895,3,1,0,0
1,1,2,4,1,3,2,1,2,1,1,1,1368.70848,1,1,0,1
1,1,2,5,1,3,2,1,4,1,1,1,1199.404708,1,1,1,1
1,1,2,6,1,3,1,1,4,1,1,1,1300.387062,1,1,0,0
1,1,2,7,1,3,2,3,7,2,2,1,892.915641,2,1,1,0
1,1,2,8,1,3,1,4,5,1,1,1,1886.616467,3,1,0,0
1,1,2,9,1,3,2,4,9,2,2,1,904.1988831,3,1,0,0
1,1,2,10,1,3,1,1,1,1,1,1,3417.365818,1,1,0,0
1,1,2,11,1,3,2,2,2,1,1,1,1173.725826,3,1,0,0
1,1,2,12,1,3,2,1,3,1,1,1,1540.299102,1,1,0,1
1,1,2,13,1,3,1,2,6,2,2,1,3116.408727,3,1,0,0
1,1,2,14,1,3,1,1,9,2,2,1,4508.995912,1,1,0,1
1,1,2,15,1,3,1,2,8,2,2,1,1822.076541,3,1,0,1
1,1,2,16,1,3,2,1,2,1,1,1,1634.07498,1,1,0,0
1,1,2,17,1,3,1,3,6,2,2,1,2406.195748,2,1,1,0
1,1,2,18,1,3,2,3,3,1,1,1,770.5081487,2,1,0,0
1,1,2,19,1,3,1,2,4,1,1,1,1433.439484,3,1,0,0
1,1,2,20,1,3,1,4,7,2,2,1,6477.239713,3,1,0,1
1,1,2,21,1,3,2,2,10,2,2,1,928.0076972,3,1,1,0
1,1,2,22,1,3,2,2,8,2,2,1,783.7999528,3,1,1,1
1,1,2,23,1,3,2,1,10,2,2,1,1221.873729,1,1,0,1
1,1,2,24,1,3,2,1,7,2,2,1,889.7548327,1,1,1,1
1,1,2,25,1,3,2,1,5,1,1,1,1059.272126,1,1,1,1
1,1,2,26,1,3,2,3,6,2,2,1,1286.439623,2,1,0,1
1,1,2,27,1,3,1,3,1,1,1,1,2264.171619,2,1,0,0
1,1,2,28,1,3,1,1,5,1,1,1,1035.015753,1,1,0,1
1,1,2,29,1,3,2,1,9,2,2,1,1630.806771,1,1,0,0
1,1,2,30,1,3,1,1,9,2,2,1,1675.024422,1,1,0,0
1,1,2,31,1,3,2,3,4,1,1,1,1453.493737,2,1,1,0
1,1,2,32,1,3,2,1,10,2,2,1,1424.324148,1,1,0,1
1,1,2,33,1,3,1,1,8,2,2,1,6501.597396,1,1,0,0
1,1,2,34,1,3,2,4,7,2,2,1,1030.312852,3,1,0,0
1,1,2,35,1,3,1,1,6,2,2,1,5114.967624,1,1,0,0
1,1,2,36,1,3,1,3,1,1,1,1,1483.376983,2,1,0,1
1,1,2,37,1,3,1,4,8,2,2,1,6253.565808,3,1,0,1
1,1,2,38,1,3,1,4,3,1,1,1,2208.637704,3,1,1,1
1,1,2,39,1,3,2,1,7,2,2,1,1077.753188,1,1,0,0
1,1,2,40,1,3,1,1,2,1,1,1,2472.498981,1,1,0,0
1,1,2,41,1,3,1,1,9,2,2,1,2963.079234,1,1,1,1
1,1,2,42,1,3,2,2,4,1,1,1,961.4848839,3,1,0,0
1,1,2,43,1,3,1,2,3,1,1,1,2209.117003,3,1,0,0
1,1,2,44,1,3,1,1,10,2,2,1,1478.069749,1,1,0,1
1,1,2,45,1,3,2,1,5,1,1,1,1304.003765,1,1,0,0
1,1,2,46,1,3,1,3,6,2,2,1,2273.461042,2,1,1,0
1,1,2,47,1,3,1,1,1,1,1,1,1195.422519,1,1,0,1
1,1,2,48,1,3,2,4,2,1,1,1,961.3200952,3,1,0,0
1,1,3,1,1,3,2,1,7,2,2,1,1774.927632,1,1,0,1
1,1,3,2,1,3,1,1,3,1,1,1,2141.588752,1,1,0,0
1,1,3,3,1,3,2,4,1,1,1,1,1260.960477,3,1,0,0
1,1,3,4,1,3,2,1,5,1,1,1,2152.114414,1,1,0,1
1,1,3,5,1,3,2,1,2,1,1,1,1751.337789,1,1,1,1
1,1,3,6,1,3,1,1,1,1,1,1,1558.020338,1,1,0,0
1,1,3,7,1,3,2,3,8,2,2,1,933.1408441,2,1,1,0
1,1,3,8,1,3,1,4,5,1,1,1,2141.137346,3,1,0,0
1,1,3,9,1,3,2,4,6,2,2,1,948.7252729,3,1,0,0
1,1,3,10,1,3,1,1,3,1,1,1,3715.535922,1,1,0,0
1,1,3,11,1,3,2,2,2,1,1,1,1244.298827,3,1,0,0
1,1,3,12,1,3,2,1,4,1,1,1,1359.805703,1,1,0,1
1,1,3,13,1,3,1,2,9,2,2,1,3382.677719,3,1,0,0
1,1,3,14,1,3,1,1,6,2,2,1,1468.487297,1,1,0,1
1,1,3,15,1,3,1,2,8,2,2,1,4030.830624,3,1,0,1
1,1,3,16,1,3,2,1,3,1,1,1,1315.12831,1,1,0,0
1,1,3,17,1,3,1,3,7,2,2,1,5931.801051,2,1,1,0
1,1,3,18,1,3,2,3,4,1,1,1,883.2475888,2,1,0,0
1,1,3,19,1,3,1,2,5,1,1,1,1372.877579,3,1,0,0
1,1,3,20,1,3,1,4,10,2,2,1,6067.706184,3,1,0,1
1,1,3,21,1,3,2,2,9,2,2,1,894.0361426,3,1,1,0
1,1,3,22,1,3,2,2,9,2,2,1,639.912168,3,1,1,1
1,1,3,23,1,3,2,1,10,2,2,1,1595.690029,1,1,0,1
1,1,3,24,1,3,2,1,8,2,2,1,793.2855831,1,1,1,1
1,1,3,25,1,3,2,1,1,1,1,1,1070.868275,1,1,1,1
1,1,3,26,1,3,2,3,7,2,2,1,1120.705426,2,1,0,1
1,1,3,27,1,3,1,3,2,1,1,1,1905.516875,2,1,0,0
1,1,3,28,1,3,1,1,2,1,1,1,1706.541773,1,1,0,1
1,1,3,29,1,3,2,1,6,2,2,1,1203.124965,1,1,0,0
1,1,3,30,1,3,1,1,8,2,2,1,1328.066816,1,1,0,0
1,1,3,31,1,3,2,3,4,1,1,1,904.2501794,2,1,1,0
1,1,3,32,1,3,2,1,10,2,2,1,1129.28664,1,1,0,1
1,1,3,33,1,3,1,1,7,2,2,1,2842.077573,1,1,0,0
1,1,3,34,1,3,2,4,9,2,2,1,853.8862807,3,1,0,0
1,1,3,35,1,3,1,1,6,2,2,1,1520.40483,1,1,0,0
1,1,3,36,1,3,1,3,3,1,1,1,1272.797718,2,1,0,1
1,1,3,37,1,3,1,4,10,2,2,1,2867.158533,3,1,0,1
1,1,3,38,1,3,1,4,5,1,1,1,1245.576103,3,1,1,1
1,1,3,39,1,3,2,1,6,2,2,1,905.3501626,1,1,0,0
1,1,3,40,1,3,1,1,1,1,1,1,2882.137026,1,1,0,0
1,1,3,41,1,3,1,1,7,2,2,1,2972.455219,1,1,1,1
1,1,3,42,1,3,2,2,3,1,1,1,1682.53066,3,1,0,0
1,1,3,43,1,3,1,2,4,1,1,1,1204.073945,3,1,0,0
1,1,3,44,1,3,1,1,9,2,2,1,2129.486375,1,1,0,1
1,1,3,45,1,3,2,1,1,1,1,1,1513.381097,1,1,0,0
1,1,3,46,1,3,1,3,8,2,2,1,2610.626843,2,1,1,0
1,1,3,47,1,3,1,1,2,1,1,1,1287.848345,1,1,0,1
1,1,3,48,1,3,2,4,5,1,1,1,1329.426165,3,1,0,0
1,1,4,1,1,3,2,1,6,2,2,1,2769.009333,1,1,0,1
1,1,4,2,1,3,1,1,5,1,1,1,1014.944509,1,1,0,0
1,1,4,3,1,3,2,4,4,1,1,1,1835.360656,3,1,0,0
1,1,4,4,1,3,2,1,2,1,1,1,1111.011084,1,1,0,1
1,1,4,5,1,3,2,1,1,1,1,1,935.9169309,1,1,1,1
1,1,4,6,1,3,1,1,1,1,1,1,751.9046119,1,1,0,0
1,1,4,7,1,3,2,3,7,2,2,1,1510.866941,2,1,1,0
1,1,4,8,1,3,1,4,2,1,1,1,1439.454927,3,1,0,0
1,1,4,9,1,3,2,4,8,2,2,1,1083.521125,3,1,0,0
1,1,4,10,1,3,1,1,4,1,1,1,1628.735686,1,1,0,0
1,1,4,11,1,3,2,2,3,1,1,1,1025.175537,3,1,0,0
1,1,4,12,1,3,2,1,5,1,1,1,1045.785391,1,1,0,1
1,1,4,13,1,3,1,2,10,2,2,1,1873.122038,3,1,0,0
1,1,4,14,1,3,1,1,10,2,2,1,1523.382895,1,1,0,1
1,1,4,15,1,3,1,2,7,2,2,1,3387.898071,3,1,0,1
1,1,4,16,1,3,2,1,2,1,1,1,1657.46028,1,1,0,0
1,1,4,17,1,3,1,3,6,2,2,1,2956.713054,2,1,1,0
1,1,4,18,1,3,2,3,3,1,1,1,1139.728303,2,1,0,0
1,1,4,19,1,3,1,2,4,1,1,1,1780.001789,3,1,0,0
1,1,4,20,1,3,1,4,8,2,2,1,1274.128213,3,1,0,1
1,1,4,21,1,3,2,2,9,2,2,1,747.9881467,3,1,1,0
1,1,4,22,1,3,2,2,10,2,2,1,779.2535052,3,1,1,1
1,1,4,23,1,3,2,1,7,2,2,1,801.6144843,1,1,0,1
1,1,4,24,1,3,2,1,8,2,2,1,1062.482307,1,1,1,1
1,1,4,25,1,3,2,1,1,1,1,1,1297.025878,1,1,1,1
1,1,4,26,1,3,2,3,9,2,2,1,867.0488871,2,1,0,1
1,1,4,27,1,3,1,3,5,1,1,1,1445.21549,2,1,0,0
1,1,4,28,1,3,1,1,4,1,1,1,5713.173732,1,1,0,1
1,1,4,29,1,3,2,1,6,2,2,1,1594.10722,1,1,0,0
1,1,4,30,1,3,1,1,10,2,2,1,3959.998256,1,1,0,0
1,1,4,31,1,3,2,3,3,1,1,1,823.1659443,2,1,1,0
1,1,4,32,1,3,2,1,8,2,2,1,1003.716411,1,1,0,1
1,1,4,33,1,3,1,1,7,2,2,1,1208.499204,1,1,0,0
1,1,4,34,1,3,2,4,6,2,2,1,2413.298349,3,1,0,0
1,1,4,35,1,3,1,1,9,2,2,1,3050.370631,1,1,0,0
1,1,4,36,1,3,1,3,5,1,1,1,2645.744867,2,1,0,1
1,1,4,37,1,3,1,4,10,2,2,1,2921.928456,3,1,0,1
1,1,4,38,1,3,1,4,1,1,1,1,1713.891879,3,1,1,1
1,1,4,39,1,3,2,1,9,2,2,1,938.842738,1,1,0,0
1,1,4,40,1,3,1,1,2,1,1,1,746.8436002,1,1,0,0
1,1,4,41,1,3,1,1,7,2,2,1,1762.232783,1,1,1,1
1,1,4,42,1,3,2,2,4,1,1,1,1249.522064,3,1,0,0
1,1,4,43,1,3,1,2,1,1,1,1,2692.13363,3,1,0,0
1,1,4,44,1,3,1,1,6,2,2,1,973.8354078,1,1,0,1
1,1,4,45,1,3,2,1,5,1,1,1,1108.074376,1,1,0,0
1,1,4,46,1,3,1,3,8,2,2,1,4893.553317,2,1,1,0
1,1,4,47,1,3,1,1,3,1,1,1,1655.602075,1,1,0,1
1,1,4,48,1,3,2,4,2,1,1,1,1082.171074,3,1,0,0
1,1,5,1,1,3,2,1,10,2,2,1,1592.551663,1,1,0,1
1,1,5,2,1,3,1,1,4,1,1,1,2342.348001,1,1,0,0
1,1,5,3,1,3,2,4,1,1,1,1,926.5031153,3,1,0,0
1,1,5,4,1,3,2,1,3,1,1,1,1134.289944,1,1,0,1
1,1,5,5,1,3,2,1,2,1,1,1,1093.927523,1,1,1,1
1,1,5,6,1,3,1,1,4,1,1,1,1279.527139,1,1,0,0
1,1,5,7,1,3,2,3,8,2,2,1,745.5987055,2,1,1,0
1,1,5,8,1,3,1,4,1,1,1,1,1609.413367,3,1,0,0
1,1,5,9,1,3,2,4,7,2,2,1,974.4609008,3,1,0,0
1,1,5,10,1,3,1,1,2,1,1,1,829.0544283,1,1,0,0
1,1,5,11,1,3,2,2,3,1,1,1,1377.134523,3,1,0,0
1,1,5,12,1,3,2,1,5,1,1,1,2695.699358,1,1,0,1
1,1,5,13,1,3,1,2,9,2,2,1,3865.33848,3,1,0,0
1,1,5,14,1,3,1,1,7,2,2,1,2244.182128,1,1,0,1
1,1,5,15,1,3,1,2,10,2,2,1,2095.915251,3,1,0,1
1,1,5,16,1,3,2,1,1,1,1,1,1473.205266,1,1,0,0
1,1,5,17,1,3,1,3,9,2,2,1,3123.733505,2,1,1,0
1,1,5,18,1,3,2,3,5,1,1,1,964.3997913,2,1,0,0
1,1,5,19,1,3,1,2,3,1,1,1,5395.462658,3,1,0,0
1,1,5,20,1,3,1,4,6,2,2,1,2577.163762,3,1,0,1
1,1,5,21,1,3,2,2,8,2,2,1,815.5061379,3,1,1,0
1,1,5,22,1,3,2,2,8,2,2,1,811.7894069,3,1,1,1
1,1,5,23,1,3,2,1,6,2,2,1,848.5614136,1,1,0,1
1,1,5,24,1,3,2,1,9,2,2,1,1203.483398,1,1,1,1
1,1,5,25,1,3,2,1,2,1,1,1,1664.954015,1,1,1,1
1,1,5,26,1,3,2,3,7,2,2,1,1362.983503,2,1,0,1
1,1,5,27,1,3,1,3,4,1,1,1,1370.410873,2,1,0,0
1,1,5,28,1,3,1,1,1,1,1,1,1840.80703,1,1,0,1
1,1,5,29,1,3,2,1,10,2,2,1,1036.276998,1,1,0,0
1,1,5,30,1,3,1,1,10,2,2,1,1951.68827,1,1,0,0
1,1,5,31,1,3,2,3,2,1,1,1,822.8847766,2,1,1,0
1,1,5,32,1,3,2,1,7,2,2,1,1091.038585,1,1,0,1
1,1,5,33,1,3,1,1,9,2,2,1,6749.347175,1,1,0,0
1,1,5,34,1,3,2,4,6,2,2,1,1212.082886,3,1,0,0
1,1,5,35,1,3,1,1,8,2,2,1,3473.799661,1,1,0,0
1,1,5,36,1,3,1,3,5,1,1,1,3188.28914,2,1,0,1
1,1,5,37,1,3,1,4,6,2,2,1,3465.81733,3,1,0,1
1,1,5,38,1,3,1,4,3,1,1,1,1836.507447,3,1,1,1
1,1,5,39,1,3,2,1,8,2,2,1,1687.923815,1,1,0,0
1,1,5,40,1,3,1,1,4,1,1,1,1713.639245,1,1,0,0
1,1,5,41,1,3,1,1,10,2,2,1,4674.843282,1,1,1,1
1,1,5,42,1,3,2,2,4,1,1,1,1437.346973,3,1,0,0
1,1,5,43,1,3,1,2,1,1,1,1,2489.499186,3,1,0,0
1,1,5,44,1,3,1,1,7,2,2,1,802.8308451,1,1,0,1
1,1,5,45,1,3,2,1,5,1,1,1,1087.367379,1,1,0,0
1,1,5,46,1,3,1,3,9,2,99,99,99000,2,1,1,0
1,1,5,47,1,3,1,1,2,1,1,1,3342.969326,1,1,0,1
1,1,5,48,1,3,2,4,3,1,1,1,1126.59391,3,1,0,0
1,1,6,1,1,3,2,1,8,2,2,1,1328.453782,1,1,0,1
1,1,6,2,1,3,1,1,4,1,1,1,1657.168854,1,1,0,0
1,1,6,3,1,3,2,4,1,1,1,1,1268.105397,3,1,0,0
1,1,6,4,1,3,2,1,2,1,1,1,918.0931016,1,1,0,1
1,1,6,5,1,3,2,1,3,1,1,1,878.307764,1,1,1,1
1,1,6,6,1,3,1,1,1,1,1,1,1432.796358,1,1,0,0
1,1,6,7,1,3,2,3,10,2,2,1,884.1782943,2,1,1,0
1,1,6,8,1,3,1,4,5,1,1,1,1758.209236,3,1,0,0
1,1,6,9,1,3,2,4,9,2,2,1,1069.221987,3,1,0,0
1,1,6,10,1,3,1,1,2,1,1,1,1703.329348,1,1,0,0
1,1,6,11,1,3,2,2,3,1,1,1,864.4831157,3,1,0,0
1,1,6,12,1,3,2,1,4,1,1,1,947.0450017,1,1,0,1
1,1,6,13,1,3,1,2,7,2,2,1,5387.435764,3,1,0,0
1,1,6,14,1,3,1,1,8,2,2,1,4409.252041,1,1,0,1
1,1,6,15,1,3,1,2,10,2,2,1,4622.626629,3,1,0,1
1,1,6,16,1,3,2,1,4,1,1,1,987.4019721,1,1,0,0
1,1,6,17,1,3,1,3,6,2,2,1,2448.695297,2,1,1,0
1,1,6,18,1,3,2,3,2,1,1,1,1364.171651,2,1,0,0
1,1,6,19,1,3,1,2,1,1,1,1,1787.209227,3,1,0,0
1,1,6,20,1,3,1,4,7,2,2,1,4521.234546,3,1,0,1
1,1,6,21,1,3,2,2,9,2,2,1,728.9739251,3,1,1,0
1,1,6,22,1,3,2,2,10,2,2,1,1281.35136,3,1,1,1
1,1,6,23,1,3,2,1,6,2,2,1,5995.747224,1,1,0,1
1,1,6,24,1,3,2,1,7,2,2,1,1089.063681,1,1,1,1
1,1,6,25,1,3,2,1,5,1,1,1,930.8398892,1,1,1,1
1,1,6,26,1,3,2,3,8,2,2,1,922.4779657,2,1,0,1
1,1,6,27,1,3,1,3,3,1,1,1,2691.066029,2,1,0,0
1,1,6,28,1,3,1,1,5,1,1,1,1628.986397,1,1,0,1
1,1,6,29,1,3,2,1,9,2,2,1,1040.824086,1,1,0,0
1,1,6,30,1,3,1,1,6,2,2,1,1132.452898,1,1,0,0
1,1,6,31,1,3,2,3,3,1,1,1,764.2843104,2,1,1,0
1,1,6,32,1,3,2,1,8,2,2,1,1050.976888,1,1,0,1
1,1,6,33,1,3,1,1,9,2,2,1,1990.445761,1,1,0,0
1,1,6,34,1,3,2,4,10,2,2,1,883.490284,3,1,0,0
1,1,6,35,1,3,1,1,7,2,2,1,1373.250118,1,1,0,0
1,1,6,36,1,3,1,3,4,1,1,1,1523.546081,2,1,0,1
1,1,6,37,1,3,1,4,9,2,2,1,3620.14261,3,1,0,1
1,1,6,38,1,3,1,4,2,1,1,1,1440.67257,3,1,1,1
1,1,6,39,1,3,2,1,8,2,2,1,1596.195617,1,1,0,0
1,1,6,40,1,3,1,1,1,1,1,1,793.7712939,1,1,0,0
1,1,6,41,1,3,1,1,6,2,2,1,1607.821902,1,1,1,1
1,1,6,42,1,3,2,2,2,1,1,1,828.3644943,3,1,0,0
1,1,6,43,1,3,1,2,1,1,1,1,3049.21839,3,1,0,0
1,1,6,44,1,3,1,1,10,2,2,1,6548.380178,1,1,0,1
1,1,6,45,1,3,2,1,3,1,1,1,1475.994177,1,1,0,0
1,1,6,46,1,3,1,3,7,2,2,1,2630.105936,2,1,1,0
1,1,6,47,1,3,1,1,4,1,1,1,3882.583623,1,1,0,1
1,1,6,48,1,3,2,4,5,1,1,1,796.215558,3,1,0,0
1,1,7,1,1,3,2,1,7,2,2,1,3000.820098,1,1,0,1
1,1,7,2,1,3,1,1,2,1,1,1,1037.647889,1,1,0,0
1,1,7,3,1,3,2,4,1,1,1,1,921.8358016,3,1,0,0
1,1,7,4,1,3,2,1,5,1,1,1,1074.060502,1,1,0,1
1,1,7,5,1,3,2,1,4,1,1,1,1156.37264,1,1,1,1
1,1,7,6,1,3,1,1,4,1,1,1,810.8433131,1,1,0,0
1,1,7,7,1,3,2,3,10,2,2,1,800.3227813,2,1,1,0
1,1,7,8,1,3,1,4,3,1,1,1,1341.142539,3,1,0,0
1,1,7,9,1,3,2,4,8,2,2,1,700.2954981,3,1,0,0
1,1,7,10,1,3,1,1,5,1,1,1,781.2463632,1,1,0,0
1,1,7,11,1,3,2,2,1,1,1,1,827.041693,3,1,0,0
1,1,7,12,1,3,2,1,2,1,1,1,863.5267615,1,1,0,1
1,1,7,13,1,3,1,2,9,2,2,1,1514.39067,3,1,0,0
1,1,7,14,1,3,1,1,9,2,1,0,819.0119131,1,1,0,1
1,1,7,15,1,3,1,2,7,2,2,1,2895.45833,3,1,0,1
1,1,7,16,1,3,2,1,4,1,1,1,1736.173348,1,1,0,0
1,1,7,17,1,3,1,3,10,2,2,1,2663.949571,2,1,1,0
1,1,7,18,1,3,2,3,1,1,1,1,747.3283494,2,1,0,0
1,1,7,19,1,3,1,2,3,1,1,1,1258.559493,3,1,0,0
1,1,7,20,1,3,1,4,8,2,2,1,1893.610384,3,1,0,1
1,1,7,21,1,3,2,2,6,2,2,1,999.1843901,3,1,1,0
1,1,7,22,1,3,2,2,7,2,2,1,996.2463998,3,1,1,1
1,1,7,23,1,3,2,1,8,2,2,1,1114.161953,1,1,0,1
1,1,7,24,1,3,2,1,10,2,2,1,1330.612069,1,1,1,1
1,1,7,25,1,3,2,1,5,1,1,1,1211.275612,1,1,1,1
1,1,7,26,1,3,2,3,6,2,2,1,2648.384057,2,1,0,1
1,1,7,27,1,3,1,3,2,1,1,1,3395.370005,2,1,0,0
1,1,7,28,1,3,1,1,2,1,1,1,1217.035214,1,1,0,1
1,1,7,29,1,3,2,1,9,2,2,1,1333.573784,1,1,0,0
1,1,7,30,1,3,1,1,8,2,2,1,1669.124716,1,1,0,0
1,1,7,31,1,3,2,3,3,1,1,1,1039.275582,2,1,1,0
1,1,7,32,1,3,2,1,9,2,2,1,2099.018672,1,1,0,1
1,1,7,33,1,3,1,1,7,2,2,1,2132.093183,1,1,0,0
1,1,7,34,1,3,2,4,10,2,2,1,1067.881874,3,1,0,0
1,1,7,35,1,3,1,1,6,2,2,1,2702.23738,1,1,0,0
1,1,7,36,1,3,1,3,1,1,1,1,5039.619267,2,1,0,1
1,1,7,37,1,3,1,4,10,2,2,1,2235.41753,3,1,0,1
1,1,7,38,1,3,1,4,4,1,1,1,2511.248778,3,1,1,1
1,1,7,39,1,3,2,1,7,2,2,1,2272.623952,1,1,0,0
1,1,7,40,1,3,1,1,5,1,1,1,922.9643182,1,1,0,0
1,1,7,41,1,3,1,1,8,2,2,1,2923.559033,1,1,1,1
1,1,7,42,1,3,2,2,5,1,1,1,1307.402139,3,1,0,0
1,1,7,43,1,3,1,2,4,1,1,1,2956.480619,3,1,0,0
1,1,7,44,1,3,1,1,6,2,2,1,1140.021012,1,1,0,1
1,1,7,45,1,3,2,1,2,1,1,1,1459.165494,1,1,0,0
1,1,7,46,1,3,1,3,9,2,2,1,3214.743556,2,1,1,0
1,1,7,47,1,3,1,1,1,1,1,1,1675.090786,1,1,0,1
1,1,7,48,1,3,2,4,3,1,1,1,1189.270821,3,1,0,0
1,1,8,1,1,3,2,1,9,2,2,1,1188.306452,1,1,0,1
1,1,8,2,1,3,1,1,4,1,1,1,1121.706984,1,1,0,0
1,1,8,3,1,3,2,4,1,1,1,1,1145.615505,3,1,0,0
1,1,8,4,1,3,2,1,3,1,1,1,945.5542057,1,1,0,1
1,1,8,5,1,3,2,1,2,1,1,1,1121.207808,1,1,1,1
1,1,8,6,1,3,1,1,3,1,1,1,1025.079677,1,1,0,0
1,1,8,7,1,3,2,3,7,2,2,1,893.3256902,2,1,1,0
1,1,8,8,1,3,1,4,4,1,1,1,2479.403451,3,1,0,0
1,1,8,9,1,3,2,4,10,2,2,1,1097.408612,3,1,0,0
1,1,8,10,1,3,1,1,5,1,1,1,1155.037656,1,1,0,0
1,1,8,11,1,3,2,2,1,1,1,1,826.2267248,3,1,0,0
1,1,8,12,1,3,2,1,2,1,1,1,1022.64439,1,1,0,1
1,1,8,13,1,3,1,2,8,2,2,1,2074.589494,3,1,0,0
1,1,8,14,1,3,1,1,10,2,2,1,1005.260747,1,1,0,1
1,1,8,15,1,3,1,2,6,2,2,1,2922.054451,3,1,0,1
1,1,8,16,1,3,2,1,3,1,1,1,1082.335222,1,1,0,0
1,1,8,17,1,3,1,3,8,2,2,1,2772.560954,2,1,1,0
1,1,8,18,1,3,2,3,2,1,1,1,778.4369341,2,1,0,0
1,1,8,19,1,3,1,2,5,1,1,1,5673.186414,3,1,0,0
1,1,8,20,1,3,1,4,9,2,2,1,1307.443176,3,1,0,1
1,1,8,21,1,3,2,2,7,2,2,1,1020.448592,3,1,1,0
1,1,8,22,1,3,2,2,7,2,2,1,952.7491401,3,1,1,1
1,1,8,23,1,3,2,1,9,2,2,1,1439.766551,1,1,0,1
1,1,8,24,1,3,2,1,8,2,2,1,1843.439488,1,1,1,1
1,1,8,25,1,3,2,1,4,1,1,1,1319.229762,1,1,1,1
1,1,8,26,1,3,2,3,10,2,2,1,791.3504336,2,1,0,1
1,1,8,27,1,3,1,3,1,1,1,1,1253.320869,2,1,0,0
1,1,8,28,1,3,1,1,2,1,1,1,1568.487971,1,1,0,1
1,1,8,29,1,3,2,1,6,2,2,1,1134.205625,1,1,0,0
1,1,8,30,1,3,1,1,9,2,2,1,2406.038012,1,1,0,0
1,1,8,31,1,3,2,3,3,1,1,1,1291.292885,2,1,1,0
1,1,8,32,1,3,2,1,8,2,2,1,1084.642909,1,1,0,1
1,1,8,33,1,3,1,1,7,2,2,1,1254.274657,1,1,0,0
1,1,8,34,1,3,2,4,10,2,2,1,1209.198115,3,1,0,0
1,1,8,35,1,3,1,1,6,2,2,1,1118.558679,1,1,0,0
1,1,8,36,1,3,1,3,4,1,1,1,1150.367457,2,1,0,1
1,1,8,37,1,3,1,4,10,2,2,1,4846.201468,3,1,0,1
1,1,8,38,1,3,1,4,5,1,1,1,1817.694562,3,1,1,1
1,1,8,39,1,3,2,1,8,2,2,1,2438.409766,1,1,0,0
1,1,8,40,1,3,1,1,1,1,1,1,2401.669499,1,1,0,0
1,1,8,41,1,3,1,1,7,2,2,1,1191.022587,1,1,1,1
1,1,8,42,1,3,2,2,1,1,1,1,1140.837584,3,1,0,0
1,1,8,43,1,3,1,2,5,1,1,1,1092.02219,3,1,0,0
1,1,8,44,1,3,1,1,9,2,2,1,1541.860109,1,1,0,1
1,1,8,45,1,3,2,1,3,1,1,1,1341.716095,1,1,0,0
1,1,8,46,1,3,1,3,6,2,2,1,1909.036757,2,1,1,0
1,1,8,47,1,3,1,1,4,1,1,1,1718.454355,1,1,0,1
1,1,8,48,1,3,2,4,2,1,1,1,1798.394044,3,1,0,0
1,1,9,1,1,3,2,1,8,2,2,1,1266.514894,1,1,0,1
1,1,9,2,1,3,1,1,3,1,1,1,1165.05805,1,1,0,0
1,1,9,3,1,3,2,4,2,1,1,1,1234.83596,3,1,0,0
1,1,9,4,1,3,2,1,1,1,1,1,2238.729021,1,1,0,1
1,1,9,5,1,3,2,1,5,1,1,1,1050.486047,1,1,1,1
1,1,9,6,1,3,1,1,5,1,1,1,1149.813779,1,1,0,0
1,1,9,7,1,3,2,3,10,2,2,1,764.1663295,2,1,1,0
1,1,9,8,1,3,1,4,1,1,1,1,1427.589152,3,1,0,0
1,1,9,9,1,3,2,4,7,2,2,1,1303.422194,3,1,0,0
1,1,9,10,1,3,1,1,4,1,1,1,792.8207112,1,1,0,0
1,1,9,11,1,3,2,2,2,1,1,1,1118.261161,3,1,0,0
1,1,9,12,1,3,2,1,3,1,1,1,1166.478314,1,1,0,1
1,1,9,13,1,3,1,2,9,2,2,1,2716.801335,3,1,0,0
1,1,9,14,1,3,1,1,10,2,2,1,1213.638764,1,1,0,1
1,1,9,15,1,3,1,2,9,2,2,1,1418.041004,3,1,0,1
1,1,9,16,1,3,2,1,5,1,1,1,998.3421704,1,1,0,0
1,1,9,17,1,3,1,3,6,2,2,1,1803.336434,2,1,1,0
1,1,9,18,1,3,2,3,2,1,1,1,864.1990628,2,1,0,0
1,1,9,19,1,3,1,2,4,1,1,1,1698.64344,3,1,0,0
1,1,9,20,1,3,1,4,8,2,2,1,1988.081326,3,1,0,1
1,1,9,21,1,3,2,2,7,2,2,1,817.2944519,3,1,1,0
1,1,9,22,1,3,2,2,10,2,2,1,1069.832733,3,1,1,1
1,1,9,23,1,3,2,1,9,2,2,1,1111.850738,1,1,0,1
1,1,9,24,1,3,2,1,6,2,2,1,1376.652019,1,1,1,1
1,1,9,25,1,3,2,1,1,1,1,1,1519.580243,1,1,1,1
1,1,9,26,1,3,2,3,7,2,2,1,1639.902871,2,1,0,1
1,1,9,27,1,3,1,3,3,1,1,1,2035.611109,2,1,0,0
1,1,9,28,1,3,1,1,2,1,1,1,1446.941928,1,1,0,1
1,1,9,29,1,3,2,1,8,2,2,1,1418.57192,1,1,0,0
1,1,9,30,1,3,1,1,7,2,2,1,1655.156439,1,1,0,0
1,1,9,31,1,3,2,3,4,1,1,1,1009.828032,2,1,1,0
1,1,9,32,1,3,2,1,9,2,2,1,1559.209769,1,1,0,1
1,1,9,33,1,3,1,1,6,2,2,1,2046.005645,1,1,0,0
1,1,9,34,1,3,2,4,8,2,2,1,1041.877903,3,1,0,0
1,1,9,35,1,3,1,1,10,2,2,1,1349.552874,1,1,0,0
1,1,9,36,1,3,1,3,1,1,1,1,2140.148611,2,1,0,1
1,1,9,37,1,3,1,4,7,2,2,1,2363.934407,3,1,0,1
1,1,9,38,1,3,1,4,3,1,1,1,963.4953751,3,1,1,1
1,1,9,39,1,3,2,1,6,2,2,1,1081.933508,1,1,0,0
1,1,9,40,1,3,1,1,5,1,1,1,1364.022572,1,1,0,0
1,1,9,41,1,3,1,1,8,2,2,1,1170.510836,1,1,1,1
1,1,9,42,1,3,2,2,5,1,1,1,1248.774101,3,1,0,0
1,1,9,43,1,3,1,2,1,1,1,1,2108.021476,3,1,0,0
1,1,9,44,1,3,1,1,9,2,2,1,924.7792424,1,1,0,1
1,1,9,45,1,3,2,1,2,1,1,1,1165.087545,1,1,0,0
1,1,9,46,1,3,1,3,10,2,2,1,1803.336754,2,1,1,0
1,1,9,47,1,3,1,1,4,1,1,1,1040.263675,1,1,0,1
1,1,9,48,1,3,2,4,3,1,1,1,1036.247503,3,1,0,0
1,1,10,1,1,3,2,1,10,2,2,1,1959.378213,1,1,0,1
1,1,10,2,1,3,1,1,3,1,1,1,1182.53082,1,1,0,0
1,1,10,3,1,3,2,4,5,1,1,1,876.2879758,3,1,0,0
1,1,10,4,1,3,2,1,1,1,1,1,1046.208906,1,1,0,1
1,1,10,5,1,3,2,1,2,1,1,1,898.0952757,1,1,1,1
1,1,10,6,1,3,1,1,4,1,1,1,818.778195,1,1,0,0
1,1,10,7,1,3,2,3,6,2,2,1,727.3167372,2,1,1,0
1,1,10,8,1,3,1,4,3,1,1,1,1335.446417,3,1,0,0
1,1,10,9,1,3,2,4,9,2,2,1,879.4385246,3,1,0,0
1,1,10,10,1,3,1,1,1,1,1,1,897.3630224,1,1,0,0
1,1,10,11,1,3,2,2,5,1,1,1,682.4578834,3,1,0,0
1,1,10,12,1,3,2,1,2,1,1,1,1099.958033,1,1,0,1
1,1,10,13,1,3,1,2,7,2,2,1,1261.236514,3,1,0,0
1,1,10,14,1,3,1,1,9,2,2,1,968.0969655,1,1,0,1
1,1,10,15,1,3,1,2,10,2,2,1,1086.397881,3,1,0,1
1,1,10,16,1,3,2,1,1,1,1,1,1303.849876,1,1,0,0
1,1,10,17,1,3,1,3,7,2,2,1,1545.023162,2,1,1,0
1,1,10,18,1,3,2,3,4,1,1,1,744.8991532,2,1,0,0
1,1,10,19,1,3,1,2,2,1,2,0,1000.459421,3,1,0,0
1,1,10,20,1,3,1,4,6,2,2,1,1916.922587,3,1,0,1
1,1,10,21,1,3,2,2,8,2,2,1,2285.397348,3,1,1,0
1,1,10,22,1,3,2,2,8,2,2,1,1007.406211,3,1,1,1
1,1,10,23,1,3,2,1,7,2,2,1,1412.014982,1,1,0,1
1,1,10,24,1,3,2,1,10,2,2,1,6681.543208,1,1,1,1
1,1,10,25,1,3,2,1,3,1,1,1,1155.669241,1,1,1,1
1,1,10,26,1,3,2,3,9,2,2,1,714.165031,2,1,0,1
1,1,10,27,1,3,1,3,5,1,1,1,1147.40991,2,1,0,0
1,1,10,28,1,3,1,1,1,1,1,1,1107.159059,1,1,0,1
1,1,10,29,1,3,2,1,6,2,2,1,1084.076727,1,1,0,0
1,1,10,30,1,3,1,1,7,2,2,1,1189.331094,1,1,0,0
1,1,10,31,1,3,2,3,4,1,1,1,754.8608766,2,1,1,0
1,1,10,32,1,3,2,1,8,2,2,1,1233.836966,1,1,0,1
1,1,10,33,1,3,1,1,9,2,2,1,1109.865896,1,1,0,0
1,1,10,34,1,3,2,4,6,2,2,1,1046.266614,3,1,0,0
1,1,10,35,1,3,1,1,10,2,2,1,2786.17657,1,1,0,0
1,1,10,36,1,3,1,3,2,1,1,1,1199.753842,2,1,0,1
1,1,10,37,1,3,1,4,9,2,2,1,2029.248136,3,1,0,1
1,1,10,38,1,3,1,4,3,1,1,1,4321.515328,3,1,1,1
1,1,10,39,1,3,2,1,6,2,2,1,1273.795108,1,1,0,0
1,1,10,40,1,3,1,1,5,1,1,1,1444.609875,1,1,0,0
1,1,10,41,1,3,1,1,7,2,2,1,1007.812092,1,1,1,1
1,1,10,42,1,3,2,2,4,1,1,1,1341.16434,3,1,0,0
1,1,10,43,1,3,1,2,5,1,1,1,1860.52433,3,1,0,0
1,1,10,44,1,3,1,1,8,2,2,1,2007.609792,1,1,0,1
1,1,10,45,1,3,2,1,3,1,1,1,1340.92389,1,1,0,0
1,1,10,46,1,3,1,3,10,2,2,1,1716.603204,2,1,1,0
1,1,10,47,1,3,1,1,2,1,1,1,2084.631688,1,1,0,1
1,1,10,48,1,3,2,4,1,1,1,1,1254.581793,3,1,0,0
1,1,11,1,1,3,2,1,9,2,2,1,1077.065818,1,1,0,1
1,1,11,2,1,3,1,1,1,1,1,1,1527.4805,1,1,0,0
1,1,11,3,1,3,2,4,3,1,1,1,1103.671558,3,1,0,0
1,1,11,4,1,3,2,1,4,1,1,1,888.6971693,1,1,0,1
1,1,11,5,1,3,2,1,2,1,1,1,906.2568229,1,1,1,1
1,1,11,6,1,3,1,1,4,1,1,1,1043.238535,1,1,0,0
1,1,11,7,1,3,2,3,8,2,2,1,846.7429634,2,1,1,0
1,1,11,8,1,3,1,4,1,1,1,1,1498.736029,3,1,0,0
1,1,11,9,1,3,2,4,10,2,2,1,963.4158653,3,1,0,0
1,1,11,10,1,3,1,1,2,1,1,1,834.5838385,1,1,0,0
1,1,11,11,1,3,2,2,3,1,1,1,806.2843625,3,1,0,0
1,1,11,12,1,3,2,1,5,1,1,1,1059.161518,1,1,0,1
1,1,11,13,1,3,1,2,6,2,2,1,2214.085682,3,1,0,0
1,1,11,14,1,3,1,1,8,2,2,1,4523.380972,1,1,0,1
1,1,11,15,1,3,1,2,6,2,2,1,5012.008121,3,1,0,1
1,1,11,16,1,3,2,1,3,1,1,1,4681.410479,1,1,0,0
1,1,11,17,1,3,1,3,10,2,2,1,6244.026637,2,1,1,0
1,1,11,18,1,3,2,3,2,1,1,1,1015.484722,2,1,0,0
1,1,11,19,1,3,1,2,5,1,1,1,2123.593081,3,1,0,0
1,1,11,20,1,3,1,4,7,2,2,1,1124.049297,3,1,0,1
1,1,11,21,1,3,2,2,9,2,2,1,1884.281528,3,1,1,0
1,1,11,22,1,3,2,2,8,2,2,1,758.4403902,3,1,1,1
1,1,11,23,1,3,2,1,9,2,2,1,829.2028666,1,1,0,1
1,1,11,24,1,3,2,1,7,2,2,1,1169.193486,1,1,1,1
1,1,11,25,1,3,2,1,4,1,1,1,1375.525425,1,1,1,1
1,1,11,26,1,3,2,3,6,2,2,1,782.0885829,2,1,0,1
1,1,11,27,1,3,1,3,1,1,1,1,2875.550913,2,1,0,0
1,1,11,28,1,3,1,1,3,1,1,1,670.2333558,1,1,0,1
1,1,11,29,1,3,2,1,10,2,2,1,1760.475247,1,1,0,0
1,1,11,30,1,3,1,1,9,2,2,1,1311.553285,1,1,0,0
1,1,11,31,1,3,2,3,2,1,1,1,880.2060438,2,1,1,0
1,1,11,32,1,3,2,1,7,2,2,1,2546.867581,1,1,0,1
1,1,11,33,1,3,1,1,10,2,2,1,2098.649339,1,1,0,0
1,1,11,34,1,3,2,4,6,2,2,1,1363.650033,3,1,0,0
1,1,11,35,1,3,1,1,8,2,2,1,3490.788965,1,1,0,0
1,1,11,36,1,3,1,3,1,1,1,1,1732.062919,2,1,0,1
1,1,11,37,1,3,1,4,9,2,2,1,2707.97422,3,1,0,1
1,1,11,38,1,3,1,4,5,1,1,1,1501.475247,3,1,1,1
1,1,11,39,1,3,2,1,8,2,2,1,1421.94689,1,1,0,0
1,1,11,40,1,3,1,1,4,1,1,1,1890.80897,1,1,0,0
1,1,11,41,1,3,1,1,7,2,2,1,1428.022605,1,1,1,1
1,1,11,42,1,3,2,2,4,1,1,1,1064.683876,3,1,0,0
1,1,11,43,1,3,1,2,2,1,1,1,2074.706513,3,1,0,0
1,1,11,44,1,3,1,1,6,2,2,1,2677.691184,1,1,0,1
1,1,11,45,1,3,2,1,5,1,1,1,1959.627321,1,1,0,0
1,1,11,46,1,3,1,3,10,2,2,1,4999.353668,2,1,1,0
1,1,11,47,1,3,1,1,3,1,1,1,2100.071206,1,1,0,1
1,1,11,48,1,3,2,4,1,1,1,1,1437.001044,3,1,0,0
1,1,12,1,1,3,2,1,6,2,2,1,1115.853125,1,1,0,1
1,1,12,2,1,3,1,1,5,1,1,1,1364.064571,1,1,0,0
1,1,12,3,1,3,2,4,4,1,1,1,1187.009941,3,1,0,0
1,1,12,4,1,3,2,1,1,1,1,1,784.2077576,1,1,0,1
1,1,12,5,1,3,2,1,2,1,1,1,765.8138992,1,1,1,1
1,1,12,6,1,3,1,1,3,1,1,1,1276.149925,1,1,0,0
1,1,12,7,1,3,2,3,7,2,1,0,654.3138991,2,1,1,0
1,1,12,8,1,3,1,4,2,1,1,1,1761.357221,3,1,0,0
1,1,12,9,1,3,2,4,10,2,2,1,1080.333066,3,1,0,0
1,1,12,10,1,3,1,1,1,1,1,1,1346.723246,1,1,0,0
1,1,12,11,1,3,2,2,4,1,1,1,1418.416428,3,1,0,0
1,1,12,12,1,3,2,1,5,1,1,1,1230.51201,1,1,0,1
1,1,12,13,1,3,1,2,8,2,2,1,1346.964659,3,1,0,0
1,1,12,14,1,3,1,1,10,2,2,1,1306.22425,1,1,0,1
1,1,12,15,1,3,1,2,8,2,2,1,1555.279518,3,1,0,1
1,1,12,16,1,3,2,1,4,1,1,1,1322.332541,1,1,0,0
1,1,12,17,1,3,1,3,6,2,2,1,2290.635973,2,1,1,0
1,1,12,18,1,3,2,3,5,1,1,1,884.2430557,2,1,0,0
1,1,12,19,1,3,1,2,3,1,1,1,6414.798122,3,1,0,0
1,1,12,20,1,3,1,4,7,2,2,1,4851.112759,3,1,0,1
1,1,12,21,1,3,2,2,9,2,2,1,790.2110168,3,1,1,0
1,1,12,22,1,3,2,2,8,2,2,1,707.8087898,3,1,1,1
1,1,12,23,1,3,2,1,6,2,2,1,884.7207516,1,1,0,1
1,1,12,24,1,3,2,1,9,2,2,1,1406.734679,1,1,1,1
1,1,12,25,1,3,2,1,1,1,1,1,1163.318467,1,1,1,1
1,1,12,26,1,3,2,3,10,2,2,1,994.2003228,2,1,0,1
1,1,12,27,1,3,1,3,2,1,1,1,4712.617168,2,1,0,0
1,1,12,28,1,3,1,1,3,1,1,1,2569.437591,1,1,0,1
1,1,12,29,1,3,2,1,7,2,2,1,1007.687699,1,1,0,0
1,1,12,30,1,3,1,1,8,2,2,1,1661.183423,1,1,0,0
1,1,12,31,1,3,2,3,4,1,1,1,1432.195551,2,1,1,0
1,1,12,32,1,3,2,1,6,2,2,1,4324.015377,1,1,0,1
1,1,12,33,1,3,1,1,9,2,2,1,1716.541328,1,1,0,0
1,1,12,34,1,3,2,4,10,2,2,1,1140.682092,3,1,0,0
1,1,12,35,1,3,1,1,7,2,2,1,2076.078046,1,1,0,0
1,1,12,36,1,3,1,3,5,1,1,1,1446.42031,2,1,0,1
1,1,12,37,1,3,1,4,9,2,2,1,1882.152735,3,1,0,1
1,1,12,38,1,3,1,4,1,1,1,1,3932.497398,3,1,1,1
1,1,12,39,1,3,2,1,10,2,2,1,2676.395634,1,1,0,0
1,1,12,40,1,3,1,1,2,1,1,1,870.7024599,1,1,0,0
1,1,12,41,1,3,1,1,6,2,2,1,1008.475095,1,1,1,1
1,1,12,42,1,3,2,2,2,1,1,1,1165.353644,3,1,0,0
1,1,12,43,1,3,1,2,3,1,1,1,1379.909648,3,1,0,0
1,1,12,44,1,3,1,1,8,2,2,1,1498.41639,1,1,0,1
1,1,12,45,1,3,2,1,4,1,1,1,1123.399438,1,1,0,0
1,1,12,46,1,3,1,3,7,2,2,1,5412.132322,2,1,1,0
1,1,12,47,1,3,1,1,5,1,1,1,1320.839821,1,1,0,1
1,1,12,48,1,3,2,4,1,1,1,1,1153.144506,3,1,0,0
1,1,13,1,1,3,2,1,10,2,2,1,837.6702676,1,1,0,1
1,1,13,2,1,3,1,1,4,1,1,1,1225.779935,1,1,0,0
1,1,13,3,1,3,2,4,3,1,1,1,781.5275304,3,1,0,0
1,1,13,4,1,3,2,1,5,1,1,1,779.1772024,1,1,0,1
1,1,13,5,1,3,2,1,2,1,1,1,801.4753433,1,1,1,1
1,1,13,6,1,3,1,1,3,1,1,1,1206.762828,1,1,0,0
1,1,13,7,1,3,2,3,6,2,2,1,707.320834,2,1,1,0
1,1,13,8,1,3,1,4,5,1,1,1,1740.334432,3,1,0,0
1,1,13,9,1,3,2,4,7,2,2,1,1403.996423,3,1,0,0
1,1,13,10,1,3,1,1,1,1,1,1,3201.493425,1,1,0,0
1,1,13,11,1,3,2,2,2,1,1,1,725.9605937,3,1,0,0
1,1,13,12,1,3,2,1,4,1,1,1,1286.406922,1,1,0,1
1,1,13,13,1,3,1,2,9,2,2,1,2072.497891,3,1,0,0
1,1,13,14,1,3,1,1,8,2,2,1,1987.006992,1,1,0,1
1,1,13,15,1,3,1,2,10,2,2,1,1880.483685,3,1,0,1
1,1,13,16,1,3,2,1,1,1,1,1,2066.497197,1,1,0,0
1,1,13,17,1,3,1,3,9,2,2,1,2069.021291,2,1,1,0
1,1,13,18,1,3,2,3,5,1,1,1,1463.357677,2,1,0,0
1,1,13,19,1,3,1,2,4,1,1,1,2346.397836,3,1,0,0
1,1,13,20,1,3,1,4,6,2,2,1,1754.169981,3,1,0,1
1,1,13,21,1,3,2,2,7,2,2,1,993.1221404,3,1,1,0
1,1,13,22,1,3,2,2,7,2,2,1,5255.550009,3,1,1,1
1,1,13,23,1,3,2,1,6,2,2,1,986.4674192,1,1,0,1
1,1,13,24,1,3,2,1,8,2,2,1,880.0358046,1,1,1,1
1,1,13,25,1,3,2,1,2,1,1,1,1050.574534,1,1,1,1
1,1,13,26,1,3,2,3,10,2,2,1,796.9840397,2,1,0,1
1,1,13,27,1,3,1,3,3,1,1,1,1402.591228,2,1,0,0
1,1,13,28,1,3,1,1,5,1,1,1,2671.734732,1,1,0,1
1,1,13,29,1,3,2,1,9,2,2,1,994.5010464,1,1,0,0
1,1,13,30,1,3,1,1,9,2,2,1,1631.697722,1,1,0,0
1,1,13,31,1,3,2,3,4,1,1,1,819.2616617,2,1,1,0
1,1,13,32,1,3,2,1,10,2,2,1,1207.556637,1,1,0,1
1,1,13,33,1,3,1,1,8,2,2,1,5013.286038,1,1,0,0
1,1,13,34,1,3,2,4,7,2,2,1,698.2491002,3,1,0,0
1,1,13,35,1,3,1,1,6,2,2,1,3123.64534,1,1,0,0
1,1,13,36,1,3,1,3,2,1,1,1,8316.80281,2,1,0,1
1,1,13,37,1,3,1,4,10,2,2,1,3084.852262,3,1,0,1
1,1,13,38,1,3,1,4,1,1,1,1,1886.924885,3,1,1,1
1,1,13,39,1,3,2,1,8,2,2,1,1872.294887,1,1,0,0
1,1,13,40,1,3,1,1,3,1,1,1,914.9512094,1,1,0,0
1,1,13,41,1,3,1,1,7,2,2,1,2850.957267,1,1,1,1
1,1,13,42,1,3,2,2,1,1,1,1,1742.088121,3,1,0,0
1,1,13,43,1,3,1,2,4,1,1,1,1974.179734,3,1,0,0
1,1,13,44,1,3,1,1,6,2,2,1,1092.105225,1,1,0,1
1,1,13,45,1,3,2,1,5,1,1,1,1397.80433,1,1,0,0
1,1,13,46,1,3,1,3,9,2,2,1,8755.837428,2,1,1,0
1,1,13,47,1,3,1,1,2,1,1,1,7003.185815,1,1,0,1
1,1,13,48,1,3,2,4,3,1,1,1,1008.704966,3,1,0,0
1,1,14,1,1,3,2,1,10,2,2,1,1408.504078,1,1,0,1
1,1,14,2,1,3,1,1,4,1,1,1,773.7834062,1,1,0,0
1,1,14,3,1,3,2,4,1,1,1,1,851.6725288,3,1,0,0
1,1,14,4,1,3,2,1,3,1,1,1,935.1093364,1,1,0,1
1,1,14,5,1,3,2,1,5,1,1,1,886.1647397,1,1,1,1
1,1,14,6,1,3,1,1,4,1,1,1,1400.35279,1,1,0,0
1,1,14,7,1,3,2,3,6,2,2,1,709.0668287,2,1,1,0
1,1,14,8,1,3,1,4,1,1,1,1,2341.751041,3,1,0,0
1,1,14,9,1,3,2,4,8,2,2,1,1069.381968,3,1,0,0
1,1,14,10,1,3,1,1,5,1,1,1,751.6439636,1,1,0,0
1,1,14,11,1,3,2,2,3,1,1,1,838.8827816,3,1,0,0
1,1,14,12,1,3,2,1,2,1,1,1,2626.308414,1,1,0,1
1,1,14,13,1,3,1,2,9,2,2,1,3278.980193,3,1,0,0
1,1,14,14,1,3,1,1,9,2,2,1,1289.197436,1,1,0,1
1,1,14,15,1,3,1,2,7,2,2,1,1355.184876,3,1,0,1
1,1,14,16,1,3,2,1,5,1,1,1,929.8021025,1,1,0,0
1,1,14,17,1,3,1,3,6,2,2,1,8059.183961,2,1,1,0
1,1,14,18,1,3,2,3,1,1,1,1,702.1062542,2,1,0,0
1,1,14,19,1,3,1,2,2,1,1,1,1295.111568,3,1,0,0
1,1,14,20,1,3,1,4,10,2,2,1,1560.860225,3,1,0,1
1,1,14,21,1,3,2,2,8,2,2,1,1815.812953,3,1,1,0
1,1,14,22,1,3,2,2,6,2,2,1,2284.373989,3,1,1,1
1,1,14,23,1,3,2,1,8,2,2,1,2093.656936,1,1,0,1
1,1,14,24,1,3,2,1,10,2,2,1,1703.372629,1,1,1,1
1,1,14,25,1,3,2,1,3,1,1,1,1368.75657,1,1,1,1
1,1,14,26,1,3,2,3,9,2,2,1,919.0106629,2,1,0,1
1,1,14,27,1,3,1,3,4,1,1,1,9287.707281,2,1,0,0
1,1,14,28,1,3,1,1,5,1,1,1,1081.456453,1,1,0,1
1,1,14,29,1,3,2,1,7,2,2,1,1739.630071,1,1,0,0
1,1,14,30,1,3,1,1,10,2,2,1,1658.950435,1,1,0,0
1,1,14,31,1,3,2,3,1,1,1,1,685.7190398,2,1,1,0
1,1,14,32,1,3,2,1,9,2,2,1,927.5226276,1,1,0,1
1,1,14,33,1,3,1,1,7,2,2,1,839.6906969,1,1,0,0
1,1,14,34,1,3,2,4,8,2,2,1,779.6629136,3,1,0,0
1,1,14,35,1,3,1,1,6,2,2,1,2105.990146,1,1,0,0
1,1,14,36,1,3,1,3,3,1,1,1,2763.148741,2,1,0,1
1,1,14,37,1,3,1,4,8,2,2,1,3530.013571,3,1,0,1
1,1,14,38,1,3,1,4,2,1,1,1,2138.811383,3,1,1,1
1,1,14,39,1,3,2,1,9,2,2,1,1514.553856,1,1,0,0
1,1,14,40,1,3,1,1,4,1,1,1,1195.141351,1,1,0,0
1,1,14,41,1,3,1,1,10,2,2,1,792.6735547,1,1,1,1
1,1,14,42,1,3,2,2,4,1,1,1,1014.282146,3,1,0,0
1,1,14,43,1,3,1,2,1,1,1,1,1795.881492,3,1,0,0
1,1,14,44,1,3,1,1,7,2,2,1,1168.921295,1,1,0,1
1,1,14,45,1,3,2,1,3,1,1,1,9744.152152,1,1,0,0
1,1,14,46,1,3,1,3,6,2,2,1,4536.295753,2,1,1,0
1,1,14,47,1,3,1,1,5,1,1,1,1783.91024,1,1,0,1
1,1,14,48,1,3,2,4,2,1,1,1,1014.09748,3,1,0,0
1,1,15,1,1,3,2,1,7,2,2,1,1639.802522,1,1,0,1
1,1,15,2,1,3,1,1,1,1,1,1,1210.86973,1,1,0,0
1,1,15,3,1,3,2,4,4,1,1,1,1112.416279,3,1,0,0
1,1,15,4,1,3,2,1,2,1,1,1,2097.401879,1,1,0,1
1,1,15,5,1,3,2,1,3,1,1,1,1434.714516,1,1,1,1
1,1,15,6,1,3,1,1,3,1,1,1,830.7327759,1,1,0,0
1,1,15,7,1,3,2,3,10,2,2,1,866.9145554,2,1,1,0
1,1,15,8,1,3,1,4,2,1,1,1,1164.895826,3,1,0,0
1,1,15,9,1,3,2,4,9,2,2,1,946.9981943,3,1,0,0
1,1,15,10,1,3,1,1,1,1,1,1,1155.135119,1,1,0,0
1,1,15,11,1,3,2,2,5,1,1,1,721.6626126,3,1,0,0
1,1,15,12,1,3,2,1,4,1,1,1,1546.231829,1,1,0,1
1,1,15,13,1,3,1,2,8,2,2,1,2058.168616,3,1,0,0
1,1,15,14,1,3,1,1,9,2,2,1,852.8879285,1,1,0,1
1,1,15,15,1,3,1,2,7,2,2,1,2055.817968,3,1,0,1
1,1,15,16,1,3,2,1,5,1,1,1,1330.621046,1,1,0,0
1,1,15,17,1,3,1,3,10,2,2,1,2787.549064,2,1,1,0
1,1,15,18,1,3,2,3,3,1,1,1,785.1314093,2,1,0,0
1,1,15,19,1,3,1,2,2,1,1,1,3438.863097,3,1,0,0
1,1,15,20,1,3,1,4,8,2,2,1,1866.908144,3,1,0,1
1,1,15,21,1,3,2,2,6,2,2,1,668.9759577,3,1,1,0
1,1,15,22,1,3,2,2,10,2,2,1,743.025559,3,1,1,1
1,1,15,23,1,3,2,1,9,2,2,1,742.3866009,1,1,0,1
1,1,15,24,1,3,2,1,7,2,2,1,942.3889094,1,1,1,1
1,1,15,25,1,3,2,1,4,1,1,1,797.9647587,1,1,1,1
1,1,15,26,1,3,2,3,6,2,2,1,850.4638616,2,1,0,1
1,1,15,27,1,3,1,3,1,1,1,1,2765.781839,2,1,0,0
1,1,15,28,1,3,1,1,4,1,2,0,796.274228,1,1,0,1
1,1,15,29,1,3,2,1,8,2,2,1,1169.433296,1,1,0,0
1,1,15,30,1,3,1,1,6,2,2,1,1143.436378,1,1,0,0
1,1,15,31,1,3,2,3,5,1,1,1,783.2004279,2,1,1,0
1,1,15,32,1,3,2,1,8,2,2,1,1132.702967,1,1,0,1
1,1,15,33,1,3,1,1,7,2,2,1,2340.417019,1,1,0,0
1,1,15,34,1,3,2,4,9,2,2,1,732.0170728,3,1,0,0
1,1,15,35,1,3,1,1,10,2,1,0,796.0007554,1,1,0,0
1,1,15,36,1,3,1,3,2,1,1,1,3192.608601,2,1,0,1
1,1,15,37,1,3,1,4,6,2,2,1,1822.250307,3,1,0,1
1,1,15,38,1,3,1,4,3,1,1,1,1714.526028,3,1,1,1
1,1,15,39,1,3,2,1,9,2,2,1,1050.934248,1,1,0,0
1,1,15,40,1,3,1,1,1,1,1,1,2006.292441,1,1,0,0
1,1,15,41,1,3,1,1,8,2,2,1,1907.356485,1,1,1,1
1,1,15,42,1,3,2,2,1,1,1,1,1019.876319,3,1,0,0
1,1,15,43,1,3,1,2,4,1,1,1,3272.655371,3,1,0,0
1,1,15,44,1,3,1,1,7,2,2,1,1714.780906,1,1,0,1
1,1,15,45,1,3,2,1,3,1,1,1,1291.442927,1,1,0,0
1,1,15,46,1,3,1,3,10,2,2,1,4237.29946,2,1,1,0
1,1,15,47,1,3,1,1,2,1,1,1,4777.158697,1,1,0,1
1,1,15,48,1,3,2,4,5,1,1,1,1807.791188,3,1,0,0
1,1,16,1,1,3,2,1,6,2,2,1,1008.721317,1,1,0,1
1,1,16,2,1,3,1,1,5,1,1,1,718.0398181,1,1,0,0
1,1,16,3,1,3,2,4,2,1,1,1,805.8672603,3,1,0,0
1,1,16,4,1,3,2,1,4,1,1,1,1346.846037,1,1,0,1
1,1,16,5,1,3,2,1,1,1,1,1,770.7508388,1,1,1,1
1,1,16,6,1,3,1,1,2,1,1,1,688.7157001,1,1,0,0
1,1,16,7,1,3,2,3,9,2,2,1,682.3257958,2,1,1,0
1,1,16,8,1,3,1,4,1,1,1,1,1371.910966,3,1,0,0
1,1,16,9,1,3,2,4,10,2,2,1,778.7004681,3,1,0,0
1,1,16,10,1,3,1,1,4,1,1,1,608.9039315,1,1,0,0
1,1,16,11,1,3,2,2,3,1,1,1,709.3338897,3,1,0,0
1,1,16,12,1,3,2,1,5,1,1,1,846.1905671,1,1,0,1
1,1,16,13,1,3,1,2,7,2,2,1,1249.806117,3,1,0,0
1,1,16,14,1,3,1,1,10,2,2,1,2629.354447,1,1,0,1
1,1,16,15,1,3,1,2,8,2,2,1,1617.584212,3,1,0,1
1,1,16,16,1,3,2,1,3,1,1,1,1301.578737,1,1,0,0
1,1,16,17,1,3,1,3,6,2,2,1,3006.737115,2,1,1,0
1,1,16,18,1,3,2,3,5,1,1,1,1100.30845,2,1,0,0
1,1,16,19,1,3,1,2,4,1,1,1,2428.832764,3,1,0,0
1,1,16,20,1,3,1,4,9,2,2,1,9810.365296,3,1,0,1
1,1,16,21,1,3,2,2,7,2,2,1,711.4585149,3,1,1,0
1,1,16,22,1,3,2,2,8,2,2,1,744.1717088,3,1,1,1
1,1,16,23,1,3,2,1,9,2,2,1,735.4920697,1,1,0,1
1,1,16,24,1,3,2,1,6,2,2,1,1103.087102,1,1,1,1
1,1,16,25,1,3,2,1,1,1,1,1,1192.232536,1,1,1,1
1,1,16,26,1,3,2,3,10,2,2,1,1461.817829,2,1,0,1
1,1,16,27,1,3,1,3,2,1,1,1,1280.801849,2,1,0,0
1,1,16,28,1,3,1,1,4,1,1,1,2802.522747,1,1,0,1
1,1,16,29,1,3,2,1,7,2,2,1,2080.117943,1,1,0,0
1,1,16,30,1,3,1,1,6,2,2,1,1890.405333,1,1,0,0
1,1,16,31,1,3,2,3,5,1,1,1,788.0383017,2,1,1,0
1,1,16,32,1,3,2,1,10,2,2,1,1425.446574,1,1,0,1
1,1,16,33,1,3,1,1,9,2,2,1,1790.056487,1,1,0,0
1,1,16,34,1,3,2,4,8,2,2,1,1131.406135,3,1,0,0
1,1,16,35,1,3,1,1,7,2,2,1,4211.090625,1,1,0,0
1,1,16,36,1,3,1,3,3,1,1,1,4848.792567,2,1,0,1
1,1,16,37,1,3,1,4,7,2,2,1,5524.160995,3,1,0,1
1,1,16,38,1,3,1,4,2,1,1,1,1172.953818,3,1,1,1
1,1,16,39,1,3,2,1,9,2,2,1,1411.257402,1,1,0,0
1,1,16,40,1,3,1,1,1,1,1,1,1255.781483,1,1,0,0
1,1,16,41,1,3,1,1,6,2,2,1,2003.324956,1,1,1,1
1,1,16,42,1,3,2,2,5,1,1,1,960.2701259,3,1,0,0
1,1,16,43,1,3,1,2,3,1,1,1,2382.858859,3,1,0,0
1,1,16,44,1,3,1,1,8,2,2,1,7381.516181,1,1,0,1
1,1,16,45,1,3,2,1,1,1,1,1,1122.946429,1,1,0,0
1,1,16,46,1,3,1,3,10,2,2,1,1491.340078,2,1,1,0
1,1,16,47,1,3,1,1,2,1,1,1,732.876284,1,1,0,1
1,1,16,48,1,3,2,4,4,1,1,1,1100.378662,3,1,0,0
1,1,17,1,1,3,1,1,2,1,1,1,1044.000604,1,2,0,0
1,1,17,2,1,3,2,2,1,1,1,1,847.1748135,3,2,0,0
1,1,17,3,1,3,1,2,3,1,1,1,714.9456949,3,2,1,0
1,1,17,4,1,3,2,1,10,2,2,1,643.0588695,2,2,0,0
1,1,17,5,1,3,2,1,4,1,1,1,630.8660819,2,2,1,1
1,1,17,6,1,3,1,3,9,2,2,1,1482.173766,2,2,0,0
1,1,17,7,1,3,1,2,4,1,1,1,1179.861173,3,2,0,1
1,1,17,8,1,3,1,1,8,2,2,1,777.8178533,1,2,0,1
1,1,17,9,1,3,2,3,7,2,2,1,1039.680822,1,2,0,0
1,1,17,10,1,3,2,2,6,2,2,1,810.9619352,3,2,0,1
1,1,17,11,1,3,2,3,1,1,1,1,1391.55517,1,2,0,1
1,1,17,12,1,3,1,2,7,2,2,1,2669.167677,3,2,0,0
1,1,17,13,1,3,2,1,10,2,2,1,1431.941315,2,2,0,0
1,1,17,14,1,3,2,3,2,1,1,1,1331.329575,1,2,0,1
1,1,17,15,1,3,2,2,3,1,1,1,3195.712663,3,2,0,1
1,1,17,16,1,3,1,3,9,2,2,1,1169.233881,2,2,0,0
1,1,17,17,1,3,2,1,5,1,1,1,719.0019423,2,2,0,0
1,1,17,18,1,3,1,4,8,2,2,1,2095.862993,3,2,0,0
1,1,17,19,1,3,2,4,5,1,1,1,929.343001,3,2,1,0
1,1,17,20,1,3,2,4,10,2,2,1,881.7590368,3,2,1,1
1,1,17,21,1,3,2,3,6,2,2,1,2427.008864,1,2,0,1
1,1,17,22,1,3,1,4,2,1,1,1,2391.554849,3,2,0,0
1,1,17,23,1,3,1,1,4,1,1,1,2717.357258,1,2,0,1
1,1,17,24,1,3,1,2,8,2,2,1,4254.084541,3,2,0,1
1,1,17,25,1,3,1,3,1,1,1,1,1385.092168,2,2,0,1
1,1,17,26,1,3,2,2,9,2,2,1,878.5716188,3,2,0,0
1,1,17,27,1,3,2,1,3,1,1,1,761.0244364,2,2,0,1
1,1,17,28,1,3,2,4,2,1,2,0,1271.820846,3,2,0,1
1,1,17,29,1,3,1,3,1,1,1,1,2265.836501,2,2,0,0
1,1,17,30,1,3,1,1,4,1,1,1,692.1650493,1,2,0,1
1,1,17,31,1,3,2,1,7,2,2,1,1046.261163,2,2,1,0
1,1,17,32,1,3,1,1,10,2,1,0,5417.901863,1,2,1,0
1,1,17,33,1,3,1,4,5,1,1,1,1486.482006,3,2,0,1
1,1,17,34,1,3,1,1,7,2,2,1,3215.86534,1,2,0,1
1,1,17,35,1,3,1,3,3,1,1,1,1500.510878,2,2,0,1
1,1,17,36,1,3,2,3,6,2,2,1,1309.206803,1,2,1,0
1,1,17,37,1,3,2,2,4,1,1,1,1062.429087,3,2,0,1
1,1,17,38,1,3,1,4,1,1,1,1,1609.026401,3,2,0,0
1,1,17,39,1,3,1,2,8,2,2,1,3774.750981,3,2,0,1
1,1,17,40,1,3,2,3,5,1,1,1,1556.87483,1,2,0,0
1,1,17,41,1,3,1,4,9,2,2,1,1732.212319,3,2,0,0
1,1,17,42,1,3,2,4,2,1,1,1,1035.44087,3,2,1,0
1,1,17,43,1,3,2,4,6,2,2,1,903.0501689,3,2,1,1
1,1,17,44,1,3,1,4,10,2,2,1,5056.786824,3,2,1,0
1,1,17,45,1,3,1,2,3,1,1,1,1899.513616,3,2,0,1
1,1,17,46,1,3,2,2,8,2,2,1,852.9465985,3,2,1,0
1,1,17,47,1,3,1,3,9,2,2,1,3776.023127,2,2,0,0
1,1,17,48,1,3,2,4,7,2,2,1,941.997455,3,2,0,0
1,1,18,1,1,3,1,1,3,1,1,1,1191.679178,1,2,0,0
1,1,18,2,1,3,2,2,4,1,1,1,1012.835273,3,2,0,0
1,1,18,3,1,3,1,2,5,1,1,1,2298.315978,3,2,1,0
1,1,18,4,1,3,2,1,10,2,2,1,1083.112038,2,2,0,0
1,1,18,5,1,3,2,1,1,1,1,1,1452.846443,2,2,1,1
1,1,18,6,1,3,1,3,7,2,2,1,5256.297652,2,2,0,0
1,1,18,7,1,3,1,2,5,1,1,1,1459.032124,3,2,0,1
1,1,18,8,1,3,1,1,9,2,2,1,7254.621548,1,2,0,1
1,1,18,9,1,3,2,3,8,2,2,1,2233.93507,1,2,0,0
1,1,18,10,1,3,2,2,10,2,2,1,981.8421048,3,2,0,1
1,1,18,11,1,3,2,3,1,1,1,1,1323.16354,1,2,0,1
1,1,18,12,1,3,1,2,8,2,2,1,1427.408333,3,2,0,0
1,1,18,13,1,3,2,1,9,2,2,1,687.6259763,2,2,0,0
1,1,18,14,1,3,2,3,2,1,1,1,1313.275555,1,2,0,1
1,1,18,15,1,3,2,2,4,1,1,1,834.6659127,3,2,0,1
1,1,18,16,1,3,1,3,7,2,2,1,2774.104649,2,2,0,0
1,1,18,17,1,3,2,1,3,1,1,1,804.2530324,2,2,0,0
1,1,18,18,1,3,1,4,6,2,2,1,681.1450212,3,2,0,0
1,1,18,19,1,3,2,4,5,1,1,1,3139.55069,3,2,1,0
1,1,18,20,1,3,2,4,7,2,2,1,2202.794746,3,2,1,1
1,1,18,21,1,3,2,3,8,2,2,1,5312.669939,1,2,0,1
1,1,18,22,1,3,1,4,1,1,1,1,2041.336087,3,2,0,0
1,1,18,23,1,3,1,1,4,1,1,1,1157.473585,1,2,0,1
1,1,18,24,1,3,1,2,6,2,2,1,3740.19433,3,2,0,1
1,1,18,25,1,3,1,3,2,1,1,1,3108.495967,2,2,0,1
1,1,18,26,1,3,2,2,9,2,2,1,1101.063787,3,2,0,0
1,1,18,27,1,3,2,1,3,1,1,1,845.9744821,2,2,0,1
1,1,18,28,1,3,2,4,5,1,1,1,977.5848398,3,2,0,1
1,1,18,29,1,3,1,3,4,1,1,1,2560.412024,2,2,0,0
1,1,18,30,1,3,1,1,3,1,1,1,790.8246475,1,2,0,1
1,1,18,31,1,3,2,1,10,2,2,1,844.5250439,2,2,1,0
1,1,18,32,1,3,1,1,8,2,2,1,1232.289744,1,2,1,0
1,1,18,33,1,3,1,4,1,1,1,1,1451.794229,3,2,0,1
1,1,18,34,1,3,1,1,6,2,2,1,942.7588833,1,2,0,1
1,1,18,35,1,3,1,3,2,1,1,1,1422.389961,2,2,0,1
1,1,18,36,1,3,2,3,10,2,2,1,1842.746348,1,2,1,0
1,1,18,37,1,3,2,2,5,1,1,1,1110.258632,3,2,0,1
1,1,18,38,1,3,1,4,1,1,1,1,2775.920855,3,2,0,0
1,1,18,39,1,3,1,2,7,2,2,1,1533.867199,3,2,0,1
1,1,18,40,1,3,2,3,2,1,1,1,1597.565225,1,2,0,0
1,1,18,41,1,3,1,4,9,2,2,1,4491.454854,3,2,0,0
1,1,18,42,1,3,2,4,3,1,1,1,925.5541353,3,2,1,0
1,1,18,43,1,3,2,4,9,2,2,1,805.5652538,3,2,1,1
1,1,18,44,1,3,1,4,10,2,1,0,1186.395989,3,2,1,0
1,1,18,45,1,3,1,2,4,1,1,1,1784.064448,3,2,0,1
1,1,18,46,1,3,2,2,7,2,2,1,637.3938448,3,2,1,0
1,1,18,47,1,3,1,3,8,2,2,1,2169.667976,2,2,0,0
1,1,18,48,1,3,2,4,6,2,2,1,951.3962027,3,2,0,0
2,1,1,1,2,4,1,2,1,1,1,1,2299.927448,3,1,99,99
2,1,1,2,2,4,2,3,6,2,2,1,965.0343956,2,1,0,0
2,1,1,3,2,4,2,1,3,1,1,1,963.2682099,1,1,0,1
2,1,1,4,2,4,1,1,8,2,2,1,2346.336231,1,1,0,0
2,1,1,5,2,4,1,1,5,1,1,1,1057.565344,1,1,1,1
2,1,1,6,2,4,2,1,2,1,2,0,1140.678665,1,1,0,0
2,1,1,7,2,4,1,1,10,2,2,1,1884.031584,1,1,0,0
2,1,1,8,2,4,2,2,3,1,1,1,1150.064232,3,1,0,0
2,1,1,9,2,4,1,3,9,2,2,1,3461.187355,2,1,0,0
2,1,1,10,2,4,2,1,10,2,2,1,1823.615465,1,1,1,0
2,1,1,11,2,4,2,2,6,2,2,1,1147.544636,3,1,0,1
2,1,1,12,2,4,1,4,8,2,2,1,2459.313448,3,1,1,0
2,1,1,13,2,4,2,2,1,1,1,1,1158.663046,3,1,1,0
2,1,1,14,2,4,1,1,9,2,2,1,1629.47706,1,1,0,0
2,1,1,15,2,4,1,3,5,1,1,1,2826.050743,2,1,0,1
2,1,1,16,2,4,2,2,7,2,2,1,1518.150612,3,1,0,0
2,1,1,17,2,4,1,1,7,2,2,1,1222.416613,1,1,0,0
2,1,1,18,2,4,2,1,6,2,2,1,1650.876793,1,1,0,0
2,1,1,19,2,4,1,1,2,1,1,1,1725.693626,1,1,0,0
2,1,1,20,2,4,2,1,8,2,2,1,1094.12946,1,1,0,0
2,1,1,21,2,4,1,1,4,1,1,1,1264.066408,1,1,0,0
2,1,1,22,2,4,1,3,10,2,2,1,1706.656074,2,1,0,1
2,1,1,23,2,4,1,4,1,1,1,1,1347.67185,3,1,0,1
2,1,1,24,2,4,2,1,4,1,1,1,1202.671496,1,1,0,0
2,1,1,25,2,4,2,3,9,2,2,1,847.6037229,2,1,0,1
2,1,1,26,2,4,2,4,8,2,2,1,2059.371925,3,1,0,1
2,1,1,27,2,4,1,2,10,2,2,1,1662.687379,3,1,1,0
2,1,1,28,2,4,1,2,7,2,2,1,801.7357929,3,1,1,1
2,1,1,29,2,4,1,2,3,1,1,1,902.0669406,3,1,1,1
2,1,1,30,2,4,1,1,2,1,1,1,863.4468161,1,1,0,1
2,1,1,31,2,4,1,3,5,1,1,1,1489.972432,2,1,0,1
2,1,1,32,2,4,2,3,1,1,1,1,1012.1174,2,1,0,0
2,1,1,33,2,4,2,4,9,2,2,1,1209.031881,3,1,0,1
2,1,1,34,2,4,1,1,6,2,2,1,2405.700461,1,1,0,0
2,1,1,35,2,4,1,1,9,2,2,1,1242.866088,1,1,1,1
2,1,1,36,2,4,2,1,7,2,2,1,1406.381737,1,1,0,0
2,1,1,37,2,4,1,4,10,2,1,0,1035.719976,3,1,0,0
2,1,1,38,2,4,2,4,3,1,1,1,1014.483428,3,1,0,0
2,1,1,39,2,4,2,1,6,2,2,1,1083.458928,1,1,0,1
2,1,1,40,2,4,2,1,5,1,1,1,940.899623,1,1,1,1
2,1,1,41,2,4,2,1,4,1,1,1,1068.140337,1,1,1,1
2,1,1,42,2,4,2,3,2,1,1,1,1278.654031,2,1,0,1
2,1,1,43,2,4,2,1,2,1,1,1,1041.036808,1,1,0,1
2,1,1,44,2,4,1,1,3,1,1,1,1652.706458,1,1,0,0
2,1,1,45,2,4,2,1,8,2,2,1,975.602656,1,1,0,0
2,1,1,46,2,4,1,1,1,1,1,1,957.587818,1,1,0,0
2,1,1,47,2,4,1,4,4,1,1,1,1052.979481,3,1,0,1
2,1,1,48,2,4,2,4,5,1,1,1,1287.490731,3,1,0,0
2,1,2,1,2,4,1,2,2,1,1,1,2151.183447,3,1,1,0
2,1,2,2,2,4,2,3,6,2,2,1,734.5088455,2,1,0,0
2,1,2,3,2,4,2,1,5,1,1,1,846.1049176,1,1,0,1
2,1,2,4,2,4,1,1,9,2,2,1,1673.364964,1,1,0,0
2,1,2,5,2,4,1,1,4,1,1,1,923.6635226,1,1,1,1
2,1,2,6,2,4,2,1,1,1,1,1,1019.901569,1,1,0,0
2,1,2,7,2,4,1,1,10,2,2,1,1792.572402,1,1,0,0
2,1,2,8,2,4,2,2,4,1,1,1,845.9760364,3,1,0,0
2,1,2,9,2,4,1,3,7,2,2,1,1193.449435,2,1,0,0
2,1,2,10,2,4,2,1,8,2,2,1,807.1542545,1,1,1,0
2,1,2,11,2,4,2,2,6,2,2,1,940.3145278,3,1,0,1
2,1,2,12,2,4,1,4,10,2,2,1,1155.579515,3,1,1,0
2,1,2,13,2,4,2,2,5,1,1,1,899.0080955,3,1,1,0
2,1,2,14,2,4,1,1,7,2,2,1,771.8132274,1,1,0,0
2,1,2,15,2,4,1,3,1,1,1,1,1482.0908,2,1,0,1
2,1,2,16,2,4,2,2,9,2,2,1,1779.566299,3,1,0,0
2,1,2,17,2,4,1,1,8,2,2,1,1057.681081,1,1,0,0
2,1,2,18,2,4,2,1,7,2,2,1,1132.711113,1,1,0,0
2,1,2,19,2,4,1,1,3,1,1,1,564.2121846,1,1,0,0
2,1,2,20,2,4,2,1,6,2,2,1,1042.61929,1,1,0,0
2,1,2,21,2,4,1,1,2,1,1,1,702.3680481,1,1,0,0
2,1,2,22,2,4,1,3,9,2,2,1,3535.489946,2,1,0,1
2,1,2,23,2,4,1,4,1,1,1,1,3735.491805,3,1,0,1
2,1,2,24,2,4,2,1,4,1,1,1,598.7908249,1,1,0,0
2,1,2,25,2,4,2,3,10,2,2,1,1835.833533,2,1,0,1
2,1,2,26,2,4,2,4,8,2,2,1,743.4224889,3,1,0,1
2,1,2,27,2,4,1,2,6,2,2,1,1215.055956,3,1,1,0
2,1,2,28,2,4,1,2,9,2,2,1,715.2507205,3,1,1,1
2,1,2,29,2,4,1,2,5,1,1,1,739.7586716,3,1,1,1
2,1,2,30,2,4,1,1,3,1,1,1,683.4792544,1,1,0,1
2,1,2,31,2,4,1,3,2,1,1,1,1037.140235,2,1,0,1
2,1,2,32,2,4,2,3,3,1,1,1,816.6587639,2,1,0,0
2,1,2,33,2,4,2,4,7,2,2,1,1036.695242,3,1,0,1
2,1,2,34,2,4,1,1,10,2,2,1,880.1433467,1,1,0,0
2,1,2,35,2,4,1,1,7,2,2,1,674.4360885,1,1,1,1
2,1,2,36,2,4,2,1,10,2,2,1,604.8132969,1,1,0,0
2,1,2,37,2,4,1,4,8,2,2,1,1913.576162,3,1,0,0
2,1,2,38,2,4,2,4,5,1,1,1,754.4979387,3,1,0,0
2,1,2,39,2,4,2,1,6,2,2,1,801.9563657,1,1,0,1
2,1,2,40,2,4,2,1,2,1,1,1,710.338807,1,1,1,1
2,1,2,41,2,4,2,1,1,1,1,1,607.5826403,1,1,1,1
2,1,2,42,2,4,2,3,4,1,1,1,628.0943116,2,1,0,1
2,1,2,43,2,4,2,1,4,1,1,1,584.2705275,1,1,0,1
2,1,2,44,2,4,1,1,1,1,1,1,813.8753142,1,1,0,0
2,1,2,45,2,4,2,1,9,2,2,1,731.1733225,1,1,0,0
2,1,2,46,2,4,1,1,5,1,1,1,586.9629268,1,1,0,0
2,1,2,47,2,4,1,4,3,1,1,1,2968.583438,3,1,0,1
2,1,2,48,2,4,2,4,2,1,1,1,895.0701649,3,1,0,0
2,1,3,1,2,4,1,2,5,1,1,1,971.75802,3,1,1,0
2,1,3,2,2,4,2,3,8,2,2,1,609.6675025,2,1,0,0
2,1,3,3,2,4,2,1,2,1,1,1,702.4411451,1,1,0,1
2,1,3,4,2,4,1,1,9,2,2,1,911.8035645,1,1,0,0
2,1,3,5,2,4,1,1,3,1,1,1,888.2865882,1,1,1,1
2,1,3,6,2,4,2,1,1,1,1,1,562.2953168,1,1,0,0
2,1,3,7,2,4,1,1,10,2,2,1,1584.892171,1,1,0,0
2,1,3,8,2,4,2,2,1,1,1,1,534.4992917,3,1,0,0
2,1,3,9,2,4,1,3,6,2,2,1,1013.983933,2,1,0,0
2,1,3,10,2,4,2,1,6,2,2,1,690.9752045,1,1,1,0
2,1,3,11,2,4,2,2,9,2,2,1,1052.617844,3,1,0,1
2,1,3,12,2,4,1,4,7,2,2,1,1167.818743,3,1,1,0
2,1,3,13,2,4,2,2,2,1,1,1,630.0733758,3,1,1,0
2,1,3,14,2,4,1,1,10,2,2,1,858.0363694,1,1,0,0
2,1,3,15,2,4,1,3,4,1,1,1,932.7005971,2,1,0,1
2,1,3,16,2,4,2,2,8,2,2,1,716.6251329,3,1,0,0
2,1,3,17,2,4,1,1,6,2,2,1,653.0943837,1,1,0,0
2,1,3,18,2,4,2,1,10,2,1,0,599.8975362,1,1,0,0
2,1,3,19,2,4,1,1,5,1,1,1,884.5968022,1,1,0,0
2,1,3,20,2,4,2,1,7,2,2,1,742.18882,1,1,0,0
2,1,3,21,2,4,1,1,3,1,1,1,789.6918104,1,1,0,0
2,1,3,22,2,4,1,3,8,2,2,1,707.1344093,2,1,0,1
2,1,3,23,2,4,1,4,2,1,1,1,692.1771341,3,1,0,1
2,1,3,24,2,4,2,1,4,1,1,1,605.3474166,1,1,0,0
2,1,3,25,2,4,2,3,9,2,2,1,674.2196834,2,1,0,1
2,1,3,26,2,4,2,4,7,2,2,1,1484.583465,3,1,0,1
2,1,3,27,2,4,1,2,8,2,2,1,750.1493194,3,1,1,0
2,1,3,28,2,4,1,2,9,2,2,1,788.944171,3,1,1,1
2,1,3,29,2,4,1,2,3,1,1,1,762.6334858,3,1,1,1
2,1,3,30,2,4,1,1,5,1,1,1,817.7898409,1,1,0,1
2,1,3,31,2,4,1,3,1,1,1,1,3542.426449,2,1,0,1
2,1,3,32,2,4,2,3,4,1,1,1,1110.060077,2,1,0,0
2,1,3,33,2,4,2,4,6,2,2,1,1006.698938,3,1,0,1
2,1,3,34,2,4,1,1,10,2,2,1,1099.656285,1,1,0,0
2,1,3,35,2,4,1,1,10,2,2,1,684.4388103,1,1,1,1
2,1,3,36,2,4,2,1,6,2,2,1,678.3233642,1,1,0,0
2,1,3,37,2,4,1,4,8,2,2,1,728.5761414,3,1,0,0
2,1,3,38,2,4,2,4,5,1,1,1,1152.933923,3,1,0,0
2,1,3,39,2,4,2,1,7,2,2,1,631.4622152,1,1,0,1
2,1,3,40,2,4,2,1,2,1,1,1,659.0674834,1,1,1,1
2,1,3,41,2,4,2,1,1,1,1,1,846.1869913,1,1,1,1
2,1,3,42,2,4,2,3,3,1,1,1,737.7677452,2,1,0,1
2,1,3,43,2,4,2,1,5,1,1,1,521.0462719,1,1,0,1
2,1,3,44,2,4,1,1,2,1,1,1,1985.413338,1,1,0,0
2,1,3,45,2,4,2,1,9,2,2,1,767.0661022,1,1,0,0
2,1,3,46,2,4,1,1,3,1,1,1,741.3369856,1,1,0,0
2,1,3,47,2,4,1,4,4,1,1,1,1013.370305,3,1,0,1
2,1,3,48,2,4,2,4,1,1,1,1,874.0897763,3,1,0,0
2,1,4,1,2,4,1,2,2,1,1,1,668.1520068,3,1,1,0
2,1,4,2,2,4,2,3,10,2,2,1,766.5303795,2,1,0,0
2,1,4,3,2,4,2,1,1,1,1,1,628.6412552,1,1,0,1
2,1,4,4,2,4,1,1,7,2,2,1,952.8884623,1,1,0,0
2,1,4,5,2,4,1,1,5,1,1,1,607.7750004,1,1,1,1
2,1,4,6,2,4,2,1,4,1,1,1,540.8660882,1,1,0,0
2,1,4,7,2,4,1,1,6,2,2,1,1228.63401,1,1,0,0
2,1,4,8,2,4,2,2,2,1,1,1,744.9033406,3,1,0,0
2,1,4,9,2,4,1,3,9,2,2,1,1528.042406,2,1,0,0
2,1,4,10,2,4,2,1,6,2,2,1,1320.876097,1,1,1,0
2,1,4,11,2,4,2,2,10,2,2,1,1000.959556,3,1,0,1
2,1,4,12,2,4,1,4,7,2,2,1,933.9967831,3,1,1,0
2,1,4,13,2,4,2,2,5,1,1,1,733.5563428,3,1,1,0
2,1,4,14,2,4,1,1,8,2,2,1,1116.911942,1,1,0,0
2,1,4,15,2,4,1,3,3,1,1,1,1581.099472,2,1,0,1
2,1,4,16,2,4,2,2,9,2,2,1,778.8064765,3,1,0,0
2,1,4,17,2,4,1,1,6,2,2,1,2945.297294,1,1,0,0
2,1,4,18,2,4,2,1,8,2,2,1,785.2204014,1,1,0,0
2,1,4,19,2,4,1,1,1,1,1,1,710.460635,1,1,0,0
2,1,4,20,2,4,2,1,10,2,2,1,935.8860793,1,1,0,0
2,1,4,21,2,4,1,1,4,1,1,1,823.1884254,1,1,0,0
2,1,4,22,2,4,1,3,9,2,2,1,1147.591123,2,1,0,1
2,1,4,23,2,4,1,4,4,1,1,1,1379.109572,3,1,0,1
2,1,4,24,2,4,2,1,5,1,1,1,745.3034496,1,1,0,0
2,1,4,25,2,4,2,3,7,2,2,1,849.0477056,2,1,0,1
2,1,4,26,2,4,2,4,9,2,2,1,907.924945,3,1,0,1
2,1,4,27,2,4,1,2,10,2,2,1,1237.05425,3,1,1,0
2,1,4,28,2,4,1,2,8,2,2,1,752.1380016,3,1,1,1
2,1,4,29,2,4,1,2,1,1,1,1,631.024596,3,1,1,1
2,1,4,30,2,4,1,1,2,1,1,1,603.4933865,1,1,0,1
2,1,4,31,2,4,1,3,3,1,1,1,1368.223597,2,1,0,1
2,1,4,32,2,4,2,3,3,1,1,1,1038.36685,2,1,0,0
2,1,4,33,2,4,2,4,6,2,2,1,802.0599196,3,1,0,1
2,1,4,34,2,4,1,1,7,2,2,1,1143.403766,1,1,0,0
2,1,4,35,2,4,1,1,10,2,2,1,878.8019561,1,1,1,1
2,1,4,36,2,4,2,1,6,2,2,1,761.153596,1,1,0,0
2,1,4,37,2,4,1,4,9,2,2,1,1880.233756,3,1,0,0
2,1,4,38,2,4,2,4,4,1,1,1,626.255029,3,1,0,0
2,1,4,39,2,4,2,1,8,2,2,1,734.3273859,1,1,0,1
2,1,4,40,2,4,2,1,5,1,1,1,757.8639187,1,1,1,1
2,1,4,41,2,4,2,1,1,1,1,1,564.7126414,1,1,1,1
2,1,4,42,2,4,2,3,2,1,1,1,715.4026849,2,1,0,1
2,1,4,43,2,4,2,1,2,1,1,1,667.2511206,1,1,0,1
2,1,4,44,2,4,1,1,4,1,1,1,1621.480973,1,1,0,0
2,1,4,45,2,4,2,1,7,2,2,1,673.6999907,1,1,0,0
2,1,4,46,2,4,1,1,1,1,1,1,1244.28827,1,1,0,0
2,1,4,47,2,4,1,4,5,1,1,1,648.0061401,3,1,0,1
2,1,4,48,2,4,2,4,3,1,1,1,971.2655783,3,1,0,0
2,1,5,1,2,4,1,2,1,1,1,1,1060.043262,3,1,1,0
2,1,5,2,2,4,2,3,10,2,2,1,606.9670882,2,1,0,0
2,1,5,3,2,4,2,1,4,1,1,1,555.9929608,1,1,0,1
2,1,5,4,2,4,1,1,7,2,2,1,811.0655752,1,1,0,0
2,1,5,5,2,4,1,1,2,1,1,1,671.9899101,1,1,1,1
2,1,5,6,2,4,2,1,3,1,1,1,1025.806381,1,1,0,0
2,1,5,7,2,4,1,1,9,2,2,1,990.1255181,1,1,0,0
2,1,5,8,2,4,2,2,4,1,1,1,1572.06881,3,1,0,0
2,1,5,9,2,4,1,3,6,2,2,1,1042.073308,2,1,0,0
2,1,5,10,2,4,2,1,9,2,2,1,1182.049859,1,1,1,0
2,1,5,11,2,4,2,2,7,2,2,1,1499.354151,3,1,0,1
2,1,5,12,2,4,1,4,10,2,2,1,796.6366488,3,1,1,0
2,1,5,13,2,4,2,2,1,1,1,1,666.23033,3,1,1,0
2,1,5,14,2,4,1,1,8,2,2,1,812.5438622,1,1,0,0
2,1,5,15,2,4,1,3,2,1,1,1,784.9722569,2,1,0,1
2,1,5,16,2,4,2,2,6,2,2,1,726.9106241,3,1,0,0
2,1,5,17,2,4,1,1,6,2,2,1,1494.868956,1,1,0,0
2,1,5,18,2,4,2,1,10,2,2,1,1272.482159,1,1,0,0
2,1,5,19,2,4,1,1,3,1,1,1,810.954327,1,1,0,0
2,1,5,20,2,4,2,1,7,2,2,1,735.6543496,1,1,0,0
2,1,5,21,2,4,1,1,5,1,1,1,1103.481685,1,1,0,0
2,1,5,22,2,4,1,3,8,2,2,1,872.5140271,2,1,0,1
2,1,5,23,2,4,1,4,1,1,1,1,682.4097327,3,1,0,1
2,1,5,24,2,4,2,1,2,1,1,1,596.2853354,1,1,0,0
2,1,5,25,2,4,2,3,9,2,2,1,721.4655527,2,1,0,1
2,1,5,26,2,4,2,4,6,2,2,1,833.6675589,3,1,0,1
2,1,5,27,2,4,1,2,8,2,2,1,885.3697688,3,1,1,0
2,1,5,28,2,4,1,2,7,2,2,1,742.9060023,3,1,1,1
2,1,5,29,2,4,1,2,4,1,1,1,710.4837182,3,1,1,1
2,1,5,30,2,4,1,1,3,1,1,1,663.6049361,1,1,0,1
2,1,5,31,2,4,1,3,5,1,1,1,730.2910312,2,1,0,1
2,1,5,32,2,4,2,3,5,1,1,1,690.8229195,2,1,0,0
2,1,5,33,2,4,2,4,9,2,2,1,580.0020582,3,1,0,1
2,1,5,34,2,4,1,1,10,2,2,1,866.3652386,1,1,0,0
2,1,5,35,2,4,1,1,10,2,2,1,812.9337117,1,1,1,1
2,1,5,36,2,4,2,1,8,2,2,1,793.4107711,1,1,0,0
2,1,5,37,2,4,1,4,6,2,2,1,614.9301525,3,1,0,0
2,1,5,38,2,4,2,4,4,1,1,1,1123.209809,3,1,0,0
2,1,5,39,2,4,2,1,9,2,2,1,707.4511622,1,1,0,1
2,1,5,40,2,4,2,1,1,1,1,1,716.9226498,1,1,1,1
2,1,5,41,2,4,2,1,2,1,1,1,524.6049326,1,1,1,1
2,1,5,42,2,4,2,3,3,1,1,1,1261.167863,2,1,0,1
2,1,5,43,2,4,2,1,2,1,1,1,600.01712,1,1,0,1
2,1,5,44,2,4,1,1,5,1,1,1,588.6643513,1,1,0,0
2,1,5,45,2,4,2,1,7,2,2,1,938.2267804,1,1,0,0
2,1,5,46,2,4,1,1,4,1,1,1,849.7729029,1,1,0,0
2,1,5,47,2,4,1,4,1,1,1,1,797.2544451,3,1,0,1
2,1,5,48,2,4,2,4,3,1,1,1,578.711643,3,1,0,0
2,1,6,1,2,4,1,2,3,1,1,1,979.7852044,3,1,1,0
2,1,6,2,2,4,2,3,9,2,2,1,642.0051482,2,1,0,0
2,1,6,3,2,4,2,1,1,1,1,1,501.5089042,1,1,0,1
2,1,6,4,2,4,1,1,10,2,2,1,974.428298,1,1,0,0
2,1,6,5,2,4,1,1,2,1,1,1,1028.735704,1,1,1,1
2,1,6,6,2,4,2,1,5,1,1,1,608.9439081,1,1,0,0
2,1,6,7,2,4,1,1,8,2,2,1,622.2122622,1,1,0,0
2,1,6,8,2,4,2,2,1,1,1,1,785.9898414,3,1,0,0
2,1,6,9,2,4,1,3,7,2,2,1,1064.190544,2,1,0,0
2,1,6,10,2,4,2,1,10,2,2,1,810.5484473,1,1,1,0
2,1,6,11,2,4,2,2,7,2,2,1,735.8694721,3,1,0,1
2,1,6,12,2,4,1,4,9,2,2,1,599.0171685,3,1,1,0
2,1,6,13,2,4,2,2,5,1,1,1,524.0044487,3,1,1,0
2,1,6,14,2,4,1,1,6,2,2,1,836.1752925,1,1,0,0
2,1,6,15,2,4,1,3,3,1,1,1,791.6949196,2,1,0,1
2,1,6,16,2,4,2,2,8,2,2,1,733.4784369,3,1,0,0
2,1,6,17,2,4,1,1,6,2,2,1,621.2084634,1,1,0,0
2,1,6,18,2,4,2,1,9,2,2,1,793.1036362,1,1,0,0
2,1,6,19,2,4,1,1,2,1,1,1,750.9825591,1,1,0,0
2,1,6,20,2,4,2,1,10,2,2,1,725.7183125,1,1,0,0
2,1,6,21,2,4,1,1,4,1,1,1,694.1350388,1,1,0,0
2,1,6,22,2,4,1,3,8,2,2,1,615.563017,2,1,0,1
2,1,6,23,2,4,1,4,3,1,1,1,683.9178354,3,1,0,1
2,1,6,24,2,4,2,1,2,1,1,1,581.0674122,1,1,0,0
2,1,6,25,2,4,2,3,7,2,2,1,434.8904558,2,1,0,1
2,1,6,26,2,4,2,4,6,2,2,1,526.1733081,3,1,0,1
2,1,6,27,2,4,1,2,7,2,2,1,686.6220968,3,1,1,0
2,1,6,28,2,4,1,2,9,2,2,1,511.9171852,3,1,1,1
2,1,6,29,2,4,1,2,5,1,1,1,617.1935889,3,1,1,1
2,1,6,30,2,4,1,1,1,1,1,1,917.0588406,1,1,0,1
2,1,6,31,2,4,1,3,4,1,1,1,1549.432201,2,1,0,1
2,1,6,32,2,4,2,3,2,1,1,1,1212.878761,2,1,0,0
2,1,6,33,2,4,2,4,8,2,2,1,585.7401581,3,1,0,1
2,1,6,34,2,4,1,1,10,2,2,1,662.801833,1,1,0,0
2,1,6,35,2,4,1,1,8,2,2,1,697.7340949,1,1,1,1
2,1,6,36,2,4,2,1,6,2,2,1,762.542756,1,1,0,0
2,1,6,37,2,4,1,4,10,2,2,1,1697.556483,3,1,0,0
2,1,6,38,2,4,2,4,1,1,1,1,603.1872134,3,1,0,0
2,1,6,39,2,4,2,1,9,2,2,1,616.0628325,1,1,0,1
2,1,6,40,2,4,2,1,5,1,1,1,708.3260798,1,1,1,1
2,1,6,41,2,4,2,1,3,1,1,1,469.1517019,1,1,1,1
2,1,6,42,2,4,2,3,4,1,1,1,551.369908,2,1,0,1
2,1,6,43,2,4,2,1,2,1,1,1,1150.326804,1,1,0,1
2,1,6,44,2,4,1,1,3,1,1,1,1077.260767,1,1,0,0
2,1,6,45,2,4,2,1,7,2,2,1,727.3921655,1,1,0,0
2,1,6,46,2,4,1,1,1,1,1,1,783.9347951,1,1,0,0
2,1,6,47,2,4,1,4,4,1,1,1,781.3337668,3,1,0,1
2,1,6,48,2,4,2,4,5,1,1,1,906.8948569,3,1,0,0
2,1,7,1,2,4,1,2,2,1,1,1,3192.574839,3,1,1,0
2,1,7,2,2,4,2,3,7,2,2,1,622.1702636,2,1,0,0
2,1,7,3,2,4,2,1,1,1,1,1,482.2052539,1,1,0,1
2,1,7,4,2,4,1,1,6,2,2,1,988.1413244,1,1,0,0
2,1,7,5,2,4,1,1,5,1,1,1,625.6337061,1,1,1,1
2,1,7,6,2,4,2,1,3,1,1,1,541.4101465,1,1,0,0
2,1,7,7,2,4,1,1,9,2,2,1,1301.196383,1,1,0,0
2,1,7,8,2,4,2,2,5,1,1,1,486.0636756,3,1,0,0
2,1,7,9,2,4,1,3,8,2,2,1,1623.519669,2,1,0,0
2,1,7,10,2,4,2,1,6,2,2,1,691.9972774,1,1,1,0
2,1,7,11,2,4,2,2,10,2,2,1,989.9463027,3,1,0,1
2,1,7,12,2,4,1,4,7,2,2,1,715.2686741,3,1,1,0
2,1,7,13,2,4,2,2,2,1,1,1,1027.55269,3,1,1,0
2,1,7,14,2,4,1,1,9,2,2,1,927.6662143,1,1,0,0
2,1,7,15,2,4,1,3,3,1,1,1,679.8853277,2,1,0,1
2,1,7,16,2,4,2,2,8,2,2,1,850.4830321,3,1,0,0
2,1,7,17,2,4,1,1,6,2,2,1,653.0389198,1,1,0,0
2,1,7,18,2,4,2,1,8,2,2,1,711.9318687,1,1,0,0
2,1,7,19,2,4,1,1,1,1,1,1,888.8402645,1,1,0,0
2,1,7,20,2,4,2,1,9,2,2,1,730.3609219,1,1,0,0
2,1,7,21,2,4,1,1,4,1,1,1,626.6359019,1,1,0,0
2,1,7,22,2,4,1,3,10,2,2,1,1095.015599,2,1,0,1
2,1,7,23,2,4,1,4,1,1,1,1,696.7001598,3,1,0,1
2,1,7,24,2,4,2,1,2,1,1,1,601.8695472,1,1,0,0
2,1,7,25,2,4,2,3,7,2,2,1,614.762158,2,1,0,1
2,1,7,26,2,4,2,4,7,2,2,1,699.3858265,3,1,0,1
2,1,7,27,2,4,1,2,9,2,2,1,580.4550661,3,1,1,0
2,1,7,28,2,4,1,2,6,2,2,1,802.2218224,3,1,1,1
2,1,7,29,2,4,1,2,3,1,1,1,527.3912676,3,1,1,1
2,1,7,30,2,4,1,1,4,1,1,1,647.6749602,1,1,0,1
2,1,7,31,2,4,1,3,5,1,1,1,1179.195236,2,1,0,1
2,1,7,32,2,4,2,3,2,1,1,1,921.2022759,2,1,0,0
2,1,7,33,2,4,2,4,10,2,2,1,657.6212565,3,1,0,1
2,1,7,34,2,4,1,1,8,2,2,1,668.7002329,1,1,0,0
2,1,7,35,2,4,1,1,8,2,2,1,534.4864677,1,1,1,1
2,1,7,36,2,4,2,1,7,2,2,1,566.0982748,1,1,0,0
2,1,7,37,2,4,1,4,9,2,2,1,1004.371061,3,1,0,0
2,1,7,38,2,4,2,4,4,1,1,1,769.2298321,3,1,0,0
2,1,7,39,2,4,2,1,6,2,2,1,727.5098255,1,1,0,1
2,1,7,40,2,4,2,1,5,1,1,1,551.6969201,1,1,1,1
2,1,7,41,2,4,2,1,1,1,1,1,622.5835171,1,1,1,1
2,1,7,42,2,4,2,3,3,1,1,1,698.7552062,2,1,0,1
2,1,7,43,2,4,2,1,3,1,1,1,515.5848499,1,1,0,1
2,1,7,44,2,4,1,1,1,1,1,1,684.0060004,1,1,0,0
2,1,7,45,2,4,2,1,10,2,2,1,597.362231,1,1,0,0
2,1,7,46,2,4,1,1,5,1,1,1,419.1647022,1,1,0,0
2,1,7,47,2,4,1,4,2,1,1,1,831.229716,3,1,0,1
2,1,7,48,2,4,2,4,4,1,1,1,739.1508138,3,1,0,0
2,1,8,1,2,4,1,2,2,1,1,1,651.5830749,3,1,1,0
2,1,8,2,2,4,2,3,7,2,2,1,726.1360543,2,1,0,0
2,1,8,3,2,4,2,1,5,1,1,1,582.2808834,1,1,0,1
2,1,8,4,2,4,1,1,10,2,2,1,708.1670621,1,1,0,0
2,1,8,5,2,4,1,1,3,1,1,1,588.7755995,1,1,1,1
2,1,8,6,2,4,2,1,4,1,1,1,586.5201781,1,1,0,0
2,1,8,7,2,4,1,1,8,2,2,1,688.2145173,1,1,0,0
2,1,8,8,2,4,2,2,2,1,1,1,705.391948,3,1,0,0
2,1,8,9,2,4,1,3,6,2,2,1,842.350691,2,1,0,0
2,1,8,10,2,4,2,1,7,2,2,1,606.2944692,1,1,1,0
2,1,8,11,2,4,2,2,8,2,2,1,1042.8062,3,1,0,1
2,1,8,12,2,4,1,4,6,2,2,1,1430.437962,3,1,1,0
2,1,8,13,2,4,2,2,5,1,1,1,626.7846604,3,1,1,0
2,1,8,14,2,4,1,1,10,2,2,1,1151.020262,1,1,0,0
2,1,8,15,2,4,1,3,3,1,1,1,613.8519745,2,1,0,1
2,1,8,16,2,4,2,2,9,2,2,1,562.7685225,3,1,0,0
2,1,8,17,2,4,1,1,6,2,2,1,1009.6491,1,1,0,0
2,1,8,18,2,4,2,1,9,2,2,1,694.9108908,1,1,0,0
2,1,8,19,2,4,1,1,1,1,1,1,792.1540189,1,1,0,0
2,1,8,20,2,4,2,1,8,2,2,1,614.0440139,1,1,0,0
2,1,8,21,2,4,1,1,4,1,1,1,594.613406,1,1,0,0
2,1,8,22,2,4,1,3,7,2,2,1,864.1482891,2,1,0,1
2,1,8,23,2,4,1,4,1,1,1,1,1515.175123,3,1,0,1
2,1,8,24,2,4,2,1,3,1,1,1,459.3355692,1,1,0,0
2,1,8,25,2,4,2,3,10,2,2,1,638.595246,2,1,0,1
2,1,8,26,2,4,2,4,6,2,2,1,673.8564437,3,1,0,1
2,1,8,27,2,4,1,2,9,2,2,1,1020.058343,3,1,1,0
2,1,8,28,2,4,1,2,7,2,2,1,1192.855684,3,1,1,1
2,1,8,29,2,4,1,2,2,1,1,1,573.8846884,3,1,1,1
2,1,8,30,2,4,1,1,4,1,1,1,540.0690765,1,1,0,1
2,1,8,31,2,4,1,3,5,1,1,1,700.0587659,2,1,0,1
2,1,8,32,2,4,2,3,3,1,1,1,716.9524656,2,1,0,0
2,1,8,33,2,4,2,4,10,2,2,1,581.1504476,3,1,0,1
2,1,8,34,2,4,1,1,8,2,2,1,538.9716625,1,1,0,0
2,1,8,35,2,4,1,1,10,2,2,1,554.8538689,1,1,1,1
2,1,8,36,2,4,2,1,6,2,2,1,617.6959692,1,1,0,0
2,1,8,37,2,4,1,4,9,2,2,1,869.9594858,3,1,0,0
2,1,8,38,2,4,2,4,1,1,1,1,632.2980196,3,1,0,0
2,1,8,39,2,4,2,1,8,2,2,1,683.6751411,1,1,0,1
2,1,8,40,2,4,2,1,2,1,1,1,469.0378888,1,1,1,1
2,1,8,41,2,4,2,1,4,1,1,1,599.2085667,1,1,1,1
2,1,8,42,2,4,2,3,5,1,2,0,988.4340323,2,1,0,1
2,1,8,43,2,4,2,1,1,1,1,1,897.8609884,1,1,0,1
2,1,8,44,2,4,1,1,4,1,1,1,787.3504681,1,1,0,0
2,1,8,45,2,4,2,1,7,2,2,1,664.9944168,1,1,0,0
2,1,8,46,2,4,1,1,2,1,1,1,739.1825533,1,1,0,0
2,1,8,47,2,4,1,4,3,1,1,1,594.8509707,3,1,0,1
2,1,8,48,2,4,2,4,5,1,1,1,600.286424,3,1,0,0
2,1,9,1,2,4,1,2,2,1,1,1,907.2632265,3,1,1,0
2,1,9,2,2,4,2,3,6,2,2,1,971.8282315,2,1,0,0
2,1,9,3,2,4,2,1,5,1,1,1,786.4473377,1,1,0,1
2,1,9,4,2,4,1,1,10,2,2,1,792.005581,1,1,0,0
2,1,9,5,2,4,1,1,3,1,1,1,669.1772857,1,1,1,1
2,1,9,6,2,4,2,1,1,1,1,1,567.737503,1,1,0,0
2,1,9,7,2,4,1,1,8,2,2,1,645.5904187,1,1,0,0
2,1,9,8,2,4,2,2,1,1,1,1,545.5458873,3,1,0,0
2,1,9,9,2,4,1,3,7,2,2,1,768.7582294,2,1,0,0
2,1,9,10,2,4,2,1,7,2,2,1,718.9818639,1,1,1,0
2,1,9,11,2,4,2,2,10,2,2,1,870.9366748,3,1,0,1
2,1,9,12,2,4,1,4,6,2,2,1,593.8490955,3,1,1,0
2,1,9,13,2,4,2,2,4,1,1,1,527.3531162,3,1,1,0
2,1,9,14,2,4,1,1,8,2,2,1,1079.588644,1,1,0,0
2,1,9,15,2,4,1,3,3,1,1,1,913.8595727,2,1,0,1
2,1,9,16,2,4,2,2,9,2,2,1,1242.33838,3,1,0,0
2,1,9,17,2,4,1,1,8,2,2,1,1110.410493,1,1,0,0
2,1,9,18,2,4,2,1,9,2,2,1,567.45281,1,1,0,0
2,1,9,19,2,4,1,1,5,1,1,1,805.5320182,1,1,0,0
2,1,9,20,2,4,2,1,7,2,2,1,642.2782994,1,1,0,0
2,1,9,21,2,4,1,1,2,1,1,1,757.8937346,1,1,0,0
2,1,9,22,2,4,1,3,6,2,2,1,1124.670463,2,1,0,1
2,1,9,23,2,4,1,4,2,1,1,1,1092.939713,3,1,0,1
2,1,9,24,2,4,2,1,5,1,1,1,654.4594988,1,1,0,0
2,1,9,25,2,4,2,3,10,2,2,1,633.5942056,2,1,0,1
2,1,9,26,2,4,2,4,9,2,2,1,956.9491827,3,1,0,1
2,1,9,27,2,4,1,2,8,2,2,1,780.3344564,3,1,1,0
2,1,9,28,2,4,1,2,10,2,2,1,562.0000442,3,1,1,1
2,1,9,29,2,4,1,2,4,1,1,1,592.9357059,3,1,1,1
2,1,9,30,2,4,1,1,1,1,1,1,862.8379966,1,1,0,1
2,1,9,31,2,4,1,3,3,1,1,1,705.3781622,2,1,0,1
2,1,9,32,2,4,2,3,3,1,1,1,1026.689634,2,1,0,0
2,1,9,33,2,4,2,4,7,2,2,1,718.4531945,3,1,0,1
2,1,9,34,2,4,1,1,6,2,2,1,639.13706,1,1,0,0
2,1,9,35,2,4,1,1,9,2,2,1,754.6511855,1,1,1,1
2,1,9,36,2,4,2,1,10,2,2,1,889.5590499,1,1,0,0
2,1,9,37,2,4,1,4,8,2,2,1,563.0900845,3,1,0,0
2,1,9,38,2,4,2,4,1,1,1,1,609.7101422,3,1,0,0
2,1,9,39,2,4,2,1,6,2,2,1,598.557428,1,1,0,1
2,1,9,40,2,4,2,1,5,1,1,1,539.6426785,1,1,1,1
2,1,9,41,2,4,2,1,4,1,1,1,587.4364531,1,1,1,1
2,1,9,42,2,4,2,3,2,1,1,1,1264.609504,2,1,0,1
2,1,9,43,2,4,2,1,3,1,1,1,634.8262717,1,1,0,1
2,1,9,44,2,4,1,1,2,1,1,1,590.7742203,1,1,0,0
2,1,9,45,2,4,2,1,7,2,2,1,876.0835881,1,1,0,0
2,1,9,46,2,4,1,1,4,1,1,1,910.1569626,1,1,0,0
2,1,9,47,2,4,1,4,5,1,1,1,815.5757769,3,1,0,1
2,1,9,48,2,4,2,4,1,1,1,1,1099.38121,3,1,0,0
2,1,10,1,2,4,1,2,1,1,1,1,776.7863756,3,1,1,0
2,1,10,2,2,4,2,3,6,2,2,1,639.0117055,2,1,0,0
2,1,10,3,2,4,2,1,2,1,1,1,554.3998992,1,1,0,1
2,1,10,4,2,4,1,1,8,2,2,1,993.1507003,1,1,0,0
2,1,10,5,2,4,1,1,3,1,1,1,790.7097156,1,1,1,1
2,1,10,6,2,4,2,1,4,1,1,1,596.6245303,1,1,0,0
2,1,10,7,2,4,1,1,9,2,2,1,650.1897472,1,1,0,0
2,1,10,8,2,4,2,2,1,1,1,1,1021.006678,3,1,0,0
2,1,10,9,2,4,1,3,7,2,2,1,1073.295586,2,1,0,0
2,1,10,10,2,4,2,1,7,2,2,1,723.2567451,1,1,1,0
2,1,10,11,2,4,2,2,8,2,2,1,1027.960493,3,1,0,1
2,1,10,12,2,4,1,4,6,2,2,1,599.879262,3,1,1,0
2,1,10,13,2,4,2,2,2,1,1,1,588.7557223,3,1,1,0
2,1,10,14,2,4,1,1,10,2,1,0,866.5614458,1,1,0,0
2,1,10,15,2,4,1,3,3,1,1,1,1180.195508,2,1,0,1
2,1,10,16,2,4,2,2,9,2,2,1,554.463378,3,1,0,0
2,1,10,17,2,4,1,1,10,2,2,1,1513.428173,1,1,0,0
2,1,10,18,2,4,2,1,8,2,2,1,570.329875,1,1,0,0
2,1,10,19,2,4,1,1,5,1,1,1,760.5293876,1,1,0,0
2,1,10,20,2,4,2,1,7,2,2,1,639.3316643,1,1,0,0
2,1,10,21,2,4,1,1,4,1,1,1,1195.094114,1,1,0,0
2,1,10,22,2,4,1,3,6,2,2,1,648.5764877,2,1,0,1
2,1,10,23,2,4,1,4,3,1,1,1,667.9083507,3,1,0,1
2,1,10,24,2,4,2,1,4,1,1,1,613.9943209,1,1,0,0
2,1,10,25,2,4,2,3,9,2,2,1,978.6836226,2,1,0,1
2,1,10,26,2,4,2,4,10,2,2,1,1001.113123,3,1,0,1
2,1,10,27,2,4,1,2,9,2,2,1,549.780373,3,1,1,0
2,1,10,28,2,4,1,2,7,2,2,1,676.7017692,3,1,1,1
2,1,10,29,2,4,1,2,2,1,1,1,638.9020602,3,1,1,1
2,1,10,30,2,4,1,1,1,1,1,1,930.5128222,1,1,0,1
2,1,10,31,2,4,1,3,5,1,1,1,986.7630646,2,1,0,1
2,1,10,32,2,4,2,3,1,1,1,1,896.3407029,2,1,0,0
2,1,10,33,2,4,2,4,6,2,2,1,1033.921089,3,1,0,1
2,1,10,34,2,4,1,1,8,2,2,1,941.5045953,1,1,0,0
2,1,10,35,2,4,1,1,10,2,2,1,621.0686818,1,1,1,1
2,1,10,36,2,4,2,1,6,2,2,1,681.3027007,1,1,0,0
2,1,10,37,2,4,1,4,9,2,2,1,947.2475041,3,1,0,0
2,1,10,38,2,4,2,4,3,1,1,1,754.5011448,3,1,0,0
2,1,10,39,2,4,2,1,8,2,2,1,1201.367616,1,1,0,1
2,1,10,40,2,4,2,1,4,1,1,1,886.4357641,1,1,1,1
2,1,10,41,2,4,2,1,2,1,1,1,1096.011062,1,1,1,1
2,1,10,42,2,4,2,3,5,1,1,1,913.9705002,2,1,0,1
2,1,10,43,2,4,2,1,4,1,1,1,954.8290544,1,1,0,1
2,1,10,44,2,4,1,1,3,1,1,1,1121.913623,1,1,0,0
2,1,10,45,2,4,2,1,7,2,2,1,641.7842548,1,1,0,0
2,1,10,46,2,4,1,1,1,1,1,1,797.6055023,1,1,0,0
2,1,10,47,2,4,1,4,5,1,1,1,682.6216494,3,1,0,1
2,1,10,48,2,4,2,4,2,1,1,1,1172.716229,3,1,0,0
2,1,11,1,2,4,1,2,3,1,1,1,878.678525,3,1,1,0
2,1,11,2,2,4,2,3,9,2,2,1,760.5797218,2,1,0,0
2,1,11,3,2,4,2,1,2,1,1,1,1087.946047,1,1,0,1
2,1,11,4,2,4,1,1,6,2,2,1,896.9681172,1,1,0,0
2,1,11,5,2,4,1,1,4,1,1,1,786.9715189,1,1,1,1
2,1,11,6,2,4,2,1,1,1,1,1,960.1843579,1,1,0,0
2,1,11,7,2,4,1,1,8,2,2,1,855.2128448,1,1,0,0
2,1,11,8,2,4,2,2,2,1,1,1,690.2657165,3,1,0,0
2,1,11,9,2,4,1,3,10,2,2,1,755.9553867,2,1,0,0
2,1,11,10,2,4,2,1,7,2,2,1,594.8695656,1,1,1,0
2,1,11,11,2,4,2,2,9,2,2,1,815.9361314,3,1,0,1
2,1,11,12,2,4,1,4,6,2,2,1,924.4326422,3,1,1,0
2,1,11,13,2,4,2,2,1,1,1,1,708.8537874,3,1,1,0
2,1,11,14,2,4,1,1,8,2,2,1,877.4724276,1,1,0,0
2,1,11,15,2,4,1,3,4,1,1,1,687.6650088,2,1,0,1
2,1,11,16,2,4,2,2,10,2,2,1,753.2354157,3,1,0,0
2,1,11,17,2,4,1,1,7,2,2,1,576.6030564,1,1,0,0
2,1,11,18,2,4,2,1,9,2,2,1,686.6971173,1,1,0,0
2,1,11,19,2,4,1,1,5,1,1,1,767.8595874,1,1,0,0
2,1,11,20,2,4,2,1,10,2,2,1,758.5064013,1,1,0,0
2,1,11,21,2,4,1,1,3,1,1,1,1053.060913,1,1,0,0
2,1,11,22,2,4,1,3,6,2,2,1,583.9204323,2,1,0,1
2,1,11,23,2,4,1,4,3,1,1,1,677.5241083,3,1,0,1
2,1,11,24,2,4,2,1,1,1,1,1,567.727885,1,1,0,0
2,1,11,25,2,4,2,3,8,2,2,1,934.350405,2,1,0,1
2,1,11,26,2,4,2,4,8,2,2,1,973.9752901,3,1,0,1
2,1,11,27,2,4,1,2,10,2,2,1,499.7552219,3,1,1,0
2,1,11,28,2,4,1,2,9,2,2,1,509.0179988,3,1,1,1
2,1,11,29,2,4,1,2,5,1,1,1,661.5437983,3,1,1,1
2,1,11,30,2,4,1,1,4,1,1,1,888.5052375,1,1,0,1
2,1,11,31,2,4,1,3,2,1,1,1,866.3633149,2,1,0,1
2,1,11,32,2,4,2,3,1,1,1,1,1100.581857,2,1,0,0
2,1,11,33,2,4,2,4,6,2,2,1,797.6083877,3,1,0,1
2,1,11,34,2,4,1,1,7,2,2,1,1482.866972,1,1,0,0
2,1,11,35,2,4,1,1,9,2,2,1,636.4856976,1,1,1,1
2,1,11,36,2,4,2,1,8,2,2,1,672.3537912,1,1,0,0
2,1,11,37,2,4,1,4,7,2,2,1,610.2612538,3,1,0,0
2,1,11,38,2,4,2,4,5,1,1,1,943.3137415,3,1,0,0
2,1,11,39,2,4,2,1,6,2,2,1,871.0604263,1,1,0,1
2,1,11,40,2,4,2,1,4,1,1,1,768.7909306,1,1,1,1
2,1,11,41,2,4,2,1,3,1,1,1,783.7158253,1,1,1,1
2,1,11,42,2,4,2,3,2,1,1,1,1028.634074,2,1,0,1
2,1,11,43,2,4,2,1,2,1,1,1,785.0389417,1,1,0,1
2,1,11,44,2,4,1,1,5,1,1,1,1054.682508,1,1,0,0
2,1,11,45,2,4,2,1,10,2,2,1,657.641775,1,1,0,0
2,1,11,46,2,4,1,1,4,1,1,1,1140.305487,1,1,0,0
2,1,11,47,2,4,1,4,1,1,2,0,860.0801949,3,1,0,1
2,1,11,48,2,4,2,4,3,1,1,1,686.7169945,3,1,0,0
2,1,12,1,2,4,1,2,2,1,1,1,2195.818349,3,1,1,0
2,1,12,2,2,4,2,3,9,2,2,1,473.2185137,2,1,0,0
2,1,12,3,2,4,2,1,3,1,1,1,1155.52854,1,1,0,1
2,1,12,4,2,4,1,1,7,2,2,1,698.5089853,1,1,0,0
2,1,12,5,2,4,1,1,1,1,1,1,939.3860701,1,1,1,1
2,1,12,6,2,4,2,1,5,1,1,1,714.9907139,1,1,0,0
2,1,12,7,2,4,1,1,6,2,2,1,587.2392841,1,1,0,0
2,1,12,8,2,4,2,2,5,1,1,1,1104.811854,3,1,0,0
2,1,12,9,2,4,1,3,8,2,2,1,978.2498507,2,1,0,0
2,1,12,10,2,4,2,1,7,2,2,1,551.976804,1,1,1,0
2,1,12,11,2,4,2,2,9,2,2,1,550.9370979,3,1,0,1
2,1,12,12,2,4,1,4,8,2,2,1,621.775605,3,1,1,0
2,1,12,13,2,4,2,2,3,1,1,1,1298.108363,3,1,1,0
2,1,12,14,2,4,1,1,10,2,2,1,1395.01935,1,1,0,0
2,1,12,15,2,4,1,3,2,1,1,1,1104.59064,2,1,0,1
2,1,12,16,2,4,2,2,6,2,2,1,569.3917993,3,1,0,0
2,1,12,17,2,4,1,1,7,2,2,1,847.6335387,1,1,0,0
2,1,12,18,2,4,2,1,9,2,2,1,666.6374921,1,1,0,0
2,1,12,19,2,4,1,1,1,1,1,1,492.8639235,1,1,0,0
2,1,12,20,2,4,2,1,6,2,2,1,622.786457,1,1,0,0
2,1,12,21,2,4,1,1,4,1,1,1,579.0296784,1,1,0,0
2,1,12,22,2,4,1,3,8,2,2,1,857.2249308,2,1,0,1
2,1,12,23,2,4,1,4,2,1,1,1,1395.860925,3,1,0,1
2,1,12,24,2,4,2,1,4,1,1,1,969.9187375,1,1,0,0
2,1,12,25,2,4,2,3,10,2,2,1,551.7026909,2,1,0,1
2,1,12,26,2,4,2,4,9,2,2,1,806.8102506,3,1,0,1
2,1,12,27,2,4,1,2,7,2,2,1,707.8339587,3,1,1,0
2,1,12,28,2,4,1,2,6,2,2,1,620.6967857,3,1,1,1
2,1,12,29,2,4,1,2,1,1,1,1,664.6395124,3,1,1,1
2,1,12,30,2,4,1,1,3,1,1,1,627.1886164,1,1,0,1
2,1,12,31,2,4,1,3,5,1,1,1,1071.06453,2,1,0,1
2,1,12,32,2,4,2,3,3,1,1,1,833.706031,2,1,0,0
2,1,12,33,2,4,2,4,10,2,2,1,668.9320266,3,1,0,1
2,1,12,34,2,4,1,1,8,2,2,1,510.990651,1,1,0,0
2,1,12,35,2,4,1,1,7,2,2,1,536.2949725,1,1,1,1
2,1,12,36,2,4,2,1,6,2,2,1,1711.632428,1,1,0,0
2,1,12,37,2,4,1,4,10,2,2,1,592.5436121,3,1,0,0
2,1,12,38,2,4,2,4,4,1,1,1,1294.218844,3,1,0,0
2,1,12,39,2,4,2,1,8,2,2,1,760.280602,1,1,0,1
2,1,12,40,2,4,2,1,5,1,1,1,1142.77571,1,1,1,1
2,1,12,41,2,4,2,1,1,1,1,1,726.6297784,1,1,1,1
2,1,12,42,2,4,2,3,2,1,1,1,630.4625842,2,1,0,1
2,1,12,43,2,4,2,1,2,1,1,1,1258.769454,1,1,0,1
2,1,12,44,2,4,1,1,1,1,1,1,869.6812049,1,1,0,0
2,1,12,45,2,4,2,1,9,2,2,1,720.0376,1,1,0,0
2,1,12,46,2,4,1,1,4,1,1,1,648.1308535,1,1,0,0
2,1,12,47,2,4,1,4,5,1,1,1,747.1991577,3,1,0,1
2,1,12,48,2,4,2,4,3,1,1,1,946.9275454,3,1,0,0
2,1,13,1,2,4,1,2,3,1,1,1,1470.034634,3,1,1,0
2,1,13,2,2,4,2,3,10,2,2,1,559.8036132,2,1,0,0
2,1,13,3,2,4,2,1,1,1,1,1,654.867302,1,1,0,1
2,1,13,4,2,4,1,1,7,2,2,1,641.977256,1,1,0,0
2,1,13,5,2,4,1,1,5,1,1,1,573.5467761,1,1,1,1
2,1,13,6,2,4,2,1,2,1,1,1,795.8200804,1,1,0,0
2,1,13,7,2,4,1,1,9,2,2,1,657.0182078,1,1,0,0
2,1,13,8,2,4,2,2,3,1,1,1,763.9354427,3,1,0,0
2,1,13,9,2,4,1,3,6,2,2,1,818.8234556,2,1,0,0
2,1,13,10,2,4,2,1,7,2,1,0,647.0045855,1,1,1,0
2,1,13,11,2,4,2,2,9,2,2,1,802.3596805,3,1,0,1
2,1,13,12,2,4,1,4,10,2,2,1,799.63458,3,1,1,0
2,1,13,13,2,4,2,2,2,1,1,1,604.3795252,3,1,1,0
2,1,13,14,2,4,1,1,8,2,2,1,601.3504957,1,1,0,0
2,1,13,15,2,4,1,3,5,1,1,1,1126.272181,2,1,0,1
2,1,13,16,2,4,2,2,6,2,2,1,886.057456,3,1,0,0
2,1,13,17,2,4,1,1,8,2,2,1,848.1186066,1,1,0,0
2,1,13,18,2,4,2,1,10,2,2,1,746.6627939,1,1,0,0
2,1,13,19,2,4,1,1,1,1,1,1,1122.297702,1,1,0,0
2,1,13,20,2,4,2,1,6,2,2,1,594.4765098,1,1,0,0
2,1,13,21,2,4,1,1,4,1,1,1,680.1257777,1,1,0,0
2,1,13,22,2,4,1,3,9,2,2,1,810.3689112,2,1,0,1
2,1,13,23,2,4,1,4,3,1,1,1,743.3336829,3,1,0,1
2,1,13,24,2,4,2,1,1,1,1,1,671.1855246,1,1,0,0
2,1,13,25,2,4,2,3,7,2,2,1,817.2679039,2,1,0,1
2,1,13,26,2,4,2,4,8,2,2,1,909.4115675,3,1,0,1
2,1,13,27,2,4,1,2,10,2,2,1,558.1598968,3,1,1,0
2,1,13,28,2,4,1,2,9,2,2,1,477.3635519,3,1,1,1
2,1,13,29,2,4,1,2,4,1,1,1,655.2757466,3,1,1,1
2,1,13,30,2,4,1,1,5,1,1,1,722.229222,1,1,0,1
2,1,13,31,2,4,1,3,2,1,1,1,714.6630605,2,1,0,1
2,1,13,32,2,4,2,3,1,1,1,1,1051.720484,2,1,0,0
2,1,13,33,2,4,2,4,6,2,2,1,734.1048894,3,1,0,1
2,1,13,34,2,4,1,1,7,2,2,1,1037.825998,1,1,0,0
2,1,13,35,2,4,1,1,9,2,2,1,1017.766373,1,1,1,1
2,1,13,36,2,4,2,1,8,2,2,1,1397.606272,1,1,0,0
2,1,13,37,2,4,1,4,7,2,2,1,803.2689024,3,1,0,0
2,1,13,38,2,4,2,4,5,1,1,1,1024.264936,3,1,0,0
2,1,13,39,2,4,2,1,6,2,2,1,940.5344595,1,1,0,1
2,1,13,40,2,4,2,1,2,1,1,1,804.1069509,1,1,1,1
2,1,13,41,2,4,2,1,3,1,1,1,977.2463725,1,1,1,1
2,1,13,42,2,4,2,3,4,1,1,1,719.2489238,2,1,0,1
2,1,13,43,2,4,2,1,2,1,1,1,783.8241881,1,1,0,1
2,1,13,44,2,4,1,1,1,1,1,1,1029.250588,1,1,0,0
2,1,13,45,2,4,2,1,10,2,2,1,833.2661677,1,1,0,0
2,1,13,46,2,4,1,1,3,1,1,1,860.8922749,1,1,0,0
2,1,13,47,2,4,1,4,4,1,1,1,848.190421,3,1,0,1
2,1,13,48,2,4,2,4,5,1,1,1,1114.77386,3,1,0,0
2,1,14,1,2,4,1,2,2,1,1,1,895.4401375,3,1,1,0
2,1,14,2,2,4,2,3,9,2,2,1,585.1403154,2,1,0,0
2,1,14,3,2,4,2,1,3,1,1,1,710.2685956,1,1,0,1
2,1,14,4,2,4,1,1,10,2,2,1,1135.636909,1,1,0,0
2,1,14,5,2,4,1,1,4,1,1,1,646.8234465,1,1,1,1
2,1,14,6,2,4,2,1,1,1,1,1,1002.305114,1,1,0,0
2,1,14,7,2,4,1,1,7,2,2,1,1031.360457,1,1,0,0
2,1,14,8,2,4,2,2,3,1,1,1,578.7530005,3,1,0,0
2,1,14,9,2,4,1,3,6,2,2,1,665.4974382,2,1,0,0
2,1,14,10,2,4,2,1,7,2,2,1,675.3026705,1,1,1,0
2,1,14,11,2,4,2,2,9,2,2,1,805.4941874,3,1,0,1
2,1,14,12,2,4,1,4,10,2,2,1,1050.91161,3,1,1,0
2,1,14,13,2,4,2,2,1,1,1,1,741.7797343,3,1,1,0
2,1,14,14,2,4,1,1,8,2,2,1,524.9970264,1,1,0,0
2,1,14,15,2,4,1,3,4,1,1,1,749.2138084,2,1,0,1
2,1,14,16,2,4,2,2,6,2,2,1,980.0958659,3,1,0,0
2,1,14,17,2,4,1,1,9,2,2,1,810.3137681,1,1,0,0
2,1,14,18,2,4,2,1,8,2,2,1,623.4904947,1,1,0,0
2,1,14,19,2,4,1,1,2,1,1,1,1307.553882,1,1,0,0
2,1,14,20,2,4,2,1,7,2,2,1,644.8450235,1,1,0,0
2,1,14,21,2,4,1,1,5,1,1,1,1400.077136,1,1,0,0
2,1,14,22,2,4,1,3,6,2,2,1,1573.09473,2,1,0,1
2,1,14,23,2,4,1,4,5,1,1,1,931.6086333,3,1,0,1
2,1,14,24,2,4,2,1,1,1,1,1,595.2911546,1,1,0,0
2,1,14,25,2,4,2,3,10,2,2,1,640.4726799,2,1,0,1
2,1,14,26,2,4,2,4,9,2,2,1,636.3520074,3,1,0,1
2,1,14,27,2,4,1,2,7,2,2,1,688.0058068,3,1,1,0
2,1,14,28,2,4,1,2,10,2,2,1,505.1605389,3,1,1,1
2,1,14,29,2,4,1,2,2,1,1,1,626.4531598,3,1,1,1
2,1,14,30,2,4,1,1,3,1,1,1,886.1202936,1,1,0,1
2,1,14,31,2,4,1,3,4,1,1,1,655.8355142,2,1,0,1
2,1,14,32,2,4,2,3,3,1,1,1,907.2625852,2,1,0,0
2,1,14,33,2,4,2,4,6,2,2,1,572.0765041,3,1,0,1
2,1,14,34,2,4,1,1,8,2,2,1,793.7797818,1,1,0,0
2,1,14,35,2,4,1,1,10,2,2,1,599.885674,1,1,1,1
2,1,14,36,2,4,2,1,8,2,2,1,548.2943917,1,1,0,0
2,1,14,37,2,4,1,4,7,2,2,1,555.1863312,3,1,0,0
2,1,14,38,2,4,2,4,1,1,1,1,610.4112946,3,1,0,0
2,1,14,39,2,4,2,1,9,2,2,1,503.3283096,1,1,0,1
2,1,14,40,2,4,2,1,5,1,1,1,591.8091174,1,1,1,1
2,1,14,41,2,4,2,1,4,1,1,1,901.7623706,1,1,1,1
2,1,14,42,2,4,2,3,2,1,1,1,1110.702239,2,1,0,1
2,1,14,43,2,4,2,1,2,1,1,1,903.2538021,1,1,0,1
2,1,14,44,2,4,1,1,4,1,1,1,920.4648958,1,1,0,0
2,1,14,45,2,4,2,1,6,2,2,1,704.4237358,1,1,0,0
2,1,14,46,2,4,1,1,3,1,1,1,937.6365556,1,1,0,0
2,1,14,47,2,4,1,4,1,1,1,1,1057.27456,3,1,0,1
2,1,14,48,2,4,2,4,5,1,1,1,692.1909199,3,1,0,0
2,1,15,1,2,4,1,2,1,1,1,1,623.3975207,3,1,1,0
2,1,15,2,2,4,2,3,10,2,2,1,595.2738421,2,1,0,0
2,1,15,3,2,4,2,1,3,1,1,1,624.8998526,1,1,0,1
2,1,15,4,2,4,1,1,8,2,2,1,757.0521594,1,1,0,0
2,1,15,5,2,4,1,1,5,1,1,1,684.1563617,1,1,1,1
2,1,15,6,2,4,2,1,4,1,1,1,733.7349169,1,1,0,0
2,1,15,7,2,4,1,1,6,2,2,1,749.3298657,1,1,0,0
2,1,15,8,2,4,2,2,2,1,1,1,828.0198682,3,1,0,0
2,1,15,9,2,4,1,3,9,2,2,1,808.4286397,2,1,0,0
2,1,15,10,2,4,2,1,10,2,2,1,957.4377772,1,1,1,0
2,1,15,11,2,4,2,2,7,2,2,1,628.1161123,3,1,0,1
2,1,15,12,2,4,1,4,9,2,2,1,576.2911126,3,1,1,0
2,1,15,13,2,4,2,2,4,1,1,1,542.422281,3,1,1,0
2,1,15,14,2,4,1,1,8,2,2,1,790.4843338,1,1,0,0
2,1,15,15,2,4,1,3,5,1,1,1,987.7165293,2,1,0,1
2,1,15,16,2,4,2,2,6,2,2,1,873.2930853,3,1,0,0
2,1,15,17,2,4,1,1,8,2,2,1,1307.969059,1,1,0,0
2,1,15,18,2,4,2,1,9,2,2,1,1292.51806,1,1,0,0
2,1,15,19,2,4,1,1,1,1,1,1,798.1787352,1,1,0,0
2,1,15,20,2,4,2,1,10,2,2,1,851.0341436,1,1,0,0
2,1,15,21,2,4,1,1,3,1,1,1,662.0705442,1,1,0,0
2,1,15,22,2,4,1,3,7,2,2,1,640.7230686,2,1,0,1
2,1,15,23,2,4,1,4,3,1,1,1,756.41673,3,1,0,1
2,1,15,24,2,4,2,1,5,1,1,1,971.2703874,1,1,0,0
2,1,15,25,2,4,2,3,6,2,2,1,697.4227923,2,1,0,1
2,1,15,26,2,4,2,4,8,2,2,1,931.0078287,3,1,0,1
2,1,15,27,2,4,1,2,10,2,2,1,571.7100583,3,1,1,0
2,1,15,28,2,4,1,2,7,2,2,1,537.5786552,3,1,1,1
2,1,15,29,2,4,1,2,1,1,1,1,641.0330888,3,1,1,1
2,1,15,30,2,4,1,1,4,1,1,1,668.6870882,1,1,0,1
2,1,15,31,2,4,1,3,2,1,1,1,918.8657426,2,1,0,1
2,1,15,32,2,4,2,3,5,1,1,1,743.1406815,2,1,0,0
2,1,15,33,2,4,2,4,6,2,2,1,918.7064044,3,1,0,1
2,1,15,34,2,4,1,1,9,2,2,1,1191.027302,1,1,0,0
2,1,15,35,2,4,1,1,10,2,2,1,668.5636572,1,1,1,1
2,1,15,36,2,4,2,1,8,2,2,1,599.1947809,1,1,0,0
2,1,15,37,2,4,1,4,6,2,2,1,547.5778505,3,1,0,0
2,1,15,38,2,4,2,4,2,1,1,1,731.6103004,3,1,0,0
2,1,15,39,2,4,2,1,7,2,2,1,578.7760837,1,1,0,1
2,1,15,40,2,4,2,1,4,1,1,1,561.3655767,1,1,1,1
2,1,15,41,2,4,2,1,3,1,1,1,599.8484845,1,1,1,1
2,1,15,42,2,4,2,3,1,1,1,1,796.6497935,2,1,0,1
2,1,15,43,2,4,2,1,4,1,1,1,522.6832557,1,1,0,1
2,1,15,44,2,4,1,1,2,1,1,1,722.4869845,1,1,0,0
2,1,15,45,2,4,2,1,9,2,2,1,906.8339429,1,1,0,0
2,1,15,46,2,4,1,1,5,1,1,1,683.9941381,1,1,0,0
2,1,15,47,2,4,1,4,1,1,1,1,541.6297576,3,1,0,1
2,1,15,48,2,4,2,4,3,1,1,1,460.8545722,3,1,0,0
2,1,16,1,2,4,1,2,1,1,1,1,856.6289352,3,1,1,0
2,1,16,2,2,4,2,3,9,2,2,1,787.6547176,2,1,0,0
2,1,16,3,2,4,2,1,4,1,1,1,601.0337429,1,1,0,1
2,1,16,4,2,4,1,1,8,2,2,1,638.1544209,1,1,0,0
2,1,16,5,2,4,1,1,3,1,1,1,617.6950074,1,1,1,1
2,1,16,6,2,4,2,1,2,1,1,1,477.799568,1,1,0,0
2,1,16,7,2,4,1,1,6,2,2,1,600.0139141,1,1,0,0
2,1,16,8,2,4,2,2,1,1,1,1,612.8391989,3,1,0,0
2,1,16,9,2,4,1,3,7,2,2,1,889.7533335,2,1,0,0
2,1,16,10,2,4,2,1,7,2,2,1,707.521053,1,1,1,0
2,1,16,11,2,4,2,2,8,2,2,1,644.2368452,3,1,0,1
2,1,16,12,2,4,1,4,10,2,2,1,535.7194955,3,1,1,0
2,1,16,13,2,4,2,2,2,1,1,1,591.6844038,3,1,1,0
2,1,16,14,2,4,1,1,6,2,2,1,796.9325627,1,1,0,0
2,1,16,15,2,4,1,3,3,1,1,1,666.4217282,2,1,0,1
2,1,16,16,2,4,2,2,9,2,2,1,668.7210719,3,1,0,0
2,1,16,17,2,4,1,1,7,2,2,1,846.7364998,1,1,0,0
2,1,16,18,2,4,2,1,9,2,2,1,642.4661711,1,1,0,0
2,1,16,19,2,4,1,1,5,1,1,1,998.5197895,1,1,0,0
2,1,16,20,2,4,2,1,10,2,2,1,650.899235,1,1,0,0
2,1,16,21,2,4,1,1,4,1,1,1,1117.843926,1,1,0,0
2,1,16,22,2,4,1,3,6,2,2,1,542.6047024,2,1,0,1
2,1,16,23,2,4,1,4,3,1,1,1,725.6734285,3,1,0,1
2,1,16,24,2,4,2,1,1,1,1,1,581.9634894,1,1,0,0
2,1,16,25,2,4,2,3,8,2,2,1,1011.719215,2,1,0,1
2,1,16,26,2,4,2,4,10,2,2,1,672.5817377,3,1,0,1
2,1,16,27,2,4,1,2,6,2,2,1,586.6721425,3,1,1,0
2,1,16,28,2,4,1,2,8,2,1,0,704.4577195,3,1,1,1
2,1,16,29,2,4,1,2,4,1,1,1,585.1521776,3,1,1,1
2,1,16,30,2,4,1,1,5,1,1,1,958.3344954,1,1,0,1
2,1,16,31,2,4,1,3,2,1,1,1,917.2742839,2,1,0,1
2,1,16,32,2,4,2,3,4,1,1,1,1373.502918,2,1,0,0
2,1,16,33,2,4,2,4,9,2,2,1,635.753447,3,1,0,1
2,1,16,34,2,4,1,1,7,2,2,1,879.727849,1,1,0,0
2,1,16,35,2,4,1,1,6,2,2,1,585.7308607,1,1,1,1
2,1,16,36,2,4,2,1,8,2,2,1,639.4852317,1,1,0,0
2,1,16,37,2,4,1,4,10,2,2,1,603.0929571,3,1,0,0
2,1,16,38,2,4,2,4,1,1,1,1,847.5450531,3,1,0,0
2,1,16,39,2,4,2,1,9,2,2,1,555.0629001,1,1,0,1
2,1,16,40,2,4,2,1,5,1,1,1,514.343807,1,1,1,1
2,1,16,41,2,4,2,1,3,1,1,1,739.1703704,1,1,1,1
2,1,16,42,2,4,2,3,2,1,1,1,730.7334592,2,1,0,1
2,1,16,43,2,4,2,1,4,1,1,1,547.1546584,1,1,0,1
2,1,16,44,2,4,1,1,3,1,1,1,898.3188054,1,1,0,0
2,1,16,45,2,4,2,1,7,2,2,1,995.4833863,1,1,0,0
2,1,16,46,2,4,1,1,5,1,1,1,1513.260499,1,1,0,0
2,1,16,47,2,4,1,4,2,1,1,1,3634.082159,3,1,0,1
2,1,16,48,2,4,2,4,1,1,1,1,885.748077,3,1,0,0
2,1,17,1,2,4,2,2,1,1,1,1,852.5326282,2,2,0,1
2,1,17,2,2,4,2,3,9,2,2,1,943.496163,3,2,0,1
2,1,17,3,2,4,1,3,3,1,1,1,687.519777,3,2,1,0
2,1,17,4,2,4,2,2,2,1,1,1,616.726154,2,2,0,0
2,1,17,5,2,4,1,3,10,2,2,1,716.6280184,3,2,0,0
2,1,17,6,2,4,1,2,8,2,2,1,509.1641925,1,2,0,1
2,1,17,7,2,4,2,3,7,2,2,1,541.8234001,3,2,0,0
2,1,17,8,2,4,1,1,4,1,1,1,749.4500908,3,2,0,0
2,1,17,9,2,4,1,3,3,1,1,1,772.0857374,3,2,0,1
2,1,17,10,2,4,2,1,10,2,2,1,769.2782427,3,2,0,0
2,1,17,11,2,4,1,1,9,2,2,1,591.505509,3,2,1,0
2,1,17,12,2,4,1,4,7,2,2,1,853.1257383,2,2,0,1
2,1,17,13,2,4,1,1,2,1,1,1,672.3602031,3,2,0,1
2,1,17,14,2,4,1,1,8,2,2,1,634.1517291,3,2,1,1
2,1,17,15,2,4,2,1,6,2,2,1,678.1056769,3,2,1,0
2,1,17,16,2,4,2,2,8,2,2,1,872.4274649,2,2,0,1
2,1,17,17,2,4,1,3,7,2,2,1,498.1708163,3,2,0,0
2,1,17,18,2,4,1,2,6,2,2,1,571.1329782,1,2,0,1
2,1,17,19,2,4,1,2,5,1,1,1,657.6844148,1,2,1,1
2,1,17,20,2,4,1,2,1,1,1,1,628.1331042,1,2,1,1
2,1,17,21,2,4,2,1,10,2,2,1,608.440566,3,2,0,0
2,1,17,22,2,4,1,1,4,1,1,1,677.6122733,3,2,1,0
2,1,17,23,2,4,1,2,9,2,2,1,599.7949442,1,2,0,1
2,1,17,24,2,4,2,1,4,1,1,1,660.2937786,3,2,0,0
2,1,17,25,2,4,1,4,2,1,1,1,1007.396885,2,2,0,0
2,1,17,26,2,4,1,4,10,2,2,1,820.6210601,2,2,1,1
2,1,17,27,2,4,2,4,7,2,2,1,560.6144108,1,2,1,0
2,1,17,28,2,4,2,3,5,1,1,1,919.3597874,3,2,0,1
2,1,17,29,2,4,2,2,9,2,2,1,783.6504228,2,2,0,1
2,1,17,30,2,4,1,2,3,1,1,1,1045.584199,1,2,1,0
2,1,17,31,2,4,2,4,1,1,1,1,1208.851383,1,2,0,0
2,1,17,32,2,4,1,4,5,1,1,1,709.8245644,2,2,1,0
2,1,17,33,2,4,2,2,6,2,2,1,958.6432333,2,2,0,0
2,1,17,34,2,4,2,4,8,2,2,1,725.4903658,1,2,0,1
2,1,17,35,2,4,2,1,4,1,1,1,1165.903799,3,2,0,1
2,1,17,36,2,4,1,1,9,2,2,1,708.4809296,3,2,1,0
2,1,17,37,2,4,2,3,7,2,2,1,924.988242,3,2,0,0
2,1,17,38,2,4,2,3,3,1,1,1,1037.297329,3,2,1,1
2,1,17,39,2,4,2,3,2,1,1,1,593.1591642,3,2,1,1
2,1,17,40,2,4,2,4,6,2,2,1,662.6617308,1,2,0,1
2,1,17,41,2,4,1,4,10,2,2,1,865.3059759,2,2,1,0
2,1,17,42,2,4,2,1,1,1,1,1,1115.579207,3,2,0,0
2,1,17,43,2,4,1,3,8,2,2,1,771.8847212,3,2,0,0
2,1,17,44,2,4,1,4,5,1,1,1,1018.073828,2,2,0,1
2,1,17,45,2,4,1,3,1,1,1,1,694.32804,3,2,0,1
2,1,17,46,2,4,2,2,2,1,1,1,551.9283933,2,2,0,0
2,1,17,47,2,4,2,4,3,1,1,1,526.7125573,1,2,0,1
2,1,17,48,2,4,2,4,4,1,1,1,567.3155932,1,2,1,1
2,1,18,1,2,4,2,2,5,1,1,1,879.5906322,2,2,0,1
2,1,18,2,2,4,2,3,10,2,2,1,641.4344801,3,2,0,1
2,1,18,3,2,4,1,3,4,1,1,1,660.8737442,3,2,1,0
2,1,18,4,2,4,2,2,2,1,1,1,927.8678717,2,2,0,0
2,1,18,5,2,4,1,3,8,2,2,1,600.468525,3,2,0,0
2,1,18,6,2,4,1,2,7,2,2,1,533.1046813,1,2,0,1
2,1,18,7,2,4,2,3,6,2,2,1,980.6271001,3,2,0,0
2,1,18,8,2,4,1,1,1,1,1,1,650.7046308,3,2,0,0
2,1,18,9,2,4,1,3,2,1,1,1,669.9896862,3,2,0,1
2,1,18,10,2,4,2,1,6,2,2,1,815.9274751,3,2,0,0
2,1,18,11,2,4,1,1,9,2,2,1,548.1222294,3,2,1,0
2,1,18,12,2,4,1,4,10,2,2,1,739.4117822,2,2,0,1
2,1,18,13,2,4,1,1,5,1,1,1,914.8213728,3,2,0,1
2,1,18,14,2,4,1,1,8,2,2,1,586.7622311,3,2,1,1
2,1,18,15,2,4,2,1,7,2,2,1,512.4176418,3,2,1,0
2,1,18,16,2,4,2,2,9,2,2,1,569.1862946,2,2,0,1
2,1,18,17,2,4,1,3,8,2,2,1,663.5110003,3,2,0,0
2,1,18,18,2,4,1,2,7,2,2,1,546.3913097,1,2,0,1
2,1,18,19,2,4,1,2,1,1,1,1,938.0296113,1,2,1,1
2,1,18,20,2,4,1,2,3,1,1,1,529.4921598,1,2,1,1
2,1,18,21,2,4,2,1,10,2,2,1,570.0009393,3,2,0,0
2,1,18,22,2,4,1,1,4,1,1,1,872.0895526,3,2,1,0
2,1,18,23,2,4,1,2,6,2,2,1,634.4091709,1,2,0,1
2,1,18,24,2,4,2,1,2,1,1,1,670.0361733,3,2,0,0
2,1,18,25,2,4,1,4,1,1,1,1,720.0090666,2,2,0,0
2,1,18,26,2,4,1,4,9,2,2,1,720.5188207,2,2,1,1
2,1,18,27,2,4,2,4,7,2,2,1,680.3627013,1,2,1,0
2,1,18,28,2,4,2,3,5,1,1,1,634.6428883,3,2,0,1
2,1,18,29,2,4,2,2,10,2,2,1,534.1338076,2,2,0,1
2,1,18,30,2,4,1,2,3,1,1,1,741.9115008,1,2,1,0
2,1,18,31,2,4,2,4,4,1,1,1,629.401398,1,2,0,0
2,1,18,32,2,4,1,4,3,1,1,1,753.9471478,2,2,1,0
2,1,18,33,2,4,2,2,6,2,2,1,608.4280626,2,2,0,0
2,1,18,34,2,4,2,4,8,2,2,1,557.343649,1,2,0,1
2,1,18,35,2,4,2,1,5,1,1,1,636.5706566,3,2,0,1
2,1,18,36,2,4,1,1,6,2,2,1,512.187451,3,2,1,0
2,1,18,37,2,4,2,3,10,2,2,1,504.6305869,3,2,0,0
2,1,18,38,2,4,2,3,1,1,1,1,993.4450112,3,2,1,1
2,1,18,39,2,4,2,3,4,1,1,1,559.0925222,3,2,1,1
2,1,18,40,2,4,2,4,8,2,2,1,662.3693435,1,2,0,1
2,1,18,41,2,4,1,4,7,2,2,1,592.8629297,2,2,1,0
2,1,18,42,2,4,2,1,2,1,1,1,710.3958738,3,2,0,0
2,1,18,43,2,4,1,3,9,2,2,1,631.3108919,3,2,0,0
2,1,18,44,2,4,1,4,3,1,1,1,595.060643,2,2,0,1
2,1,18,45,2,4,1,3,2,1,1,1,872.3485974,3,2,0,1
2,1,18,46,2,4,2,2,5,1,1,1,874.6732684,2,2,0,0
2,1,18,47,2,4,2,4,4,1,1,1,925.3123685,1,2,0,1
2,1,18,48,2,4,2,4,1,1,1,1,669.1400962,1,2,1,1
3,1,1,1,3,1,1,1,6,2,2,1,1797.702644,1,1,99,99
3,1,1,2,3,1,1,1,9,2,2,1,1146.942229,1,1,1,1
3,1,1,3,3,1,2,1,10,2,2,1,2170.617581,1,1,0,0
3,1,1,4,3,1,2,3,8,2,2,1,1529.375782,2,1,0,1
3,1,1,5,3,1,2,1,2,1,1,1,993.3344042,1,1,0,1
3,1,1,6,3,1,1,1,4,1,1,1,2471.338836,1,1,0,0
3,1,1,7,3,1,2,3,1,1,1,1,1585.50099,2,1,1,0
3,1,1,8,3,1,2,1,5,1,1,1,943.317268,1,1,0,1
3,1,1,9,3,1,1,1,8,2,2,1,1647.004585,1,1,0,0
3,1,1,10,3,1,1,4,10,2,2,1,3105.993907,3,1,0,1
3,1,1,11,3,1,1,1,5,1,1,1,1474.844276,1,1,0,1
3,1,1,12,3,1,1,1,9,2,2,1,1325.249724,1,1,1,1
3,1,1,13,3,1,1,1,1,1,1,1,3181.968747,1,1,1,1
3,1,1,14,3,1,2,1,6,2,2,1,3203.646762,1,1,0,0
3,1,1,15,3,1,1,4,2,1,1,1,1464.855341,3,1,0,0
3,1,1,16,3,1,1,2,4,1,1,1,2243.373918,3,1,0,1
3,1,1,17,3,1,2,3,7,2,2,1,1679.03157,2,1,0,0
3,1,1,18,3,1,2,1,10,2,2,1,1049.375295,1,1,0,1
3,1,1,19,3,1,2,1,8,2,2,1,779.9016463,1,1,1,1
3,1,1,20,3,1,1,4,3,1,1,1,1506.704228,3,1,0,0
3,1,1,21,3,1,2,2,9,2,2,1,794.9817113,3,1,1,0
3,1,1,22,3,1,2,1,7,2,2,1,1049.084831,1,1,0,1
3,1,1,23,3,1,2,3,3,1,1,1,1508.090503,2,1,0,1
3,1,1,24,3,1,1,2,6,2,2,1,997.0161752,3,1,0,0
3,1,1,25,3,1,2,1,1,1,1,1,1002.19579,1,1,0,0
3,1,1,26,3,1,1,1,5,1,1,1,1503.638971,1,1,0,0
3,1,1,27,3,1,2,1,4,1,1,1,1288.217851,1,1,0,0
3,1,1,28,3,1,2,1,8,2,2,1,945.8201928,1,1,1,1
3,1,1,29,3,1,1,3,2,1,1,1,4433.575995,2,1,1,0
3,1,1,30,3,1,2,4,2,1,1,1,4926.048466,3,1,0,0
3,1,1,31,3,1,2,4,1,1,1,1,1566.552245,3,1,1,1
3,1,1,32,3,1,2,2,5,1,1,1,796.7155166,3,1,0,1
3,1,1,33,3,1,2,2,9,2,2,1,946.3453356,3,1,1,1
3,1,1,34,3,1,1,3,3,1,1,1,7658.363766,2,1,0,0
3,1,1,35,3,1,1,1,4,1,1,1,2662.069262,1,1,0,1
3,1,1,36,3,1,2,2,4,1,1,1,3936.936686,3,1,0,0
3,1,1,37,3,1,1,1,6,2,2,1,5417.505597,1,1,0,0
3,1,1,38,3,1,1,2,7,2,2,1,2981.687645,3,1,0,1
3,1,1,39,3,1,1,2,2,1,1,1,1675.676811,3,1,1,1
3,1,1,40,3,1,1,3,10,2,2,1,3093.804692,2,1,0,1
3,1,1,41,3,1,1,4,10,2,2,1,2847.781656,3,1,0,1
3,1,1,42,3,1,2,1,1,1,1,1,2714.920182,1,1,0,0
3,1,1,43,3,1,2,1,5,1,1,1,1755.24686,1,1,1,1
3,1,1,44,3,1,2,4,8,2,99,99,99000,3,1,0,1
3,1,1,45,3,1,2,4,6,2,2,1,4824.652606,3,1,1,1
3,1,1,46,3,1,1,3,7,2,2,1,6133.505239,2,1,0,0
3,1,1,47,3,1,1,1,9,2,2,1,4526.22749,1,1,0,1
3,1,1,48,3,1,1,1,3,1,1,1,1734.154262,1,1,1,1
3,1,2,1,3,1,1,1,6,2,2,1,1656.236264,1,1,1,1
3,1,2,2,3,1,1,1,9,2,2,1,1035.610972,1,1,1,1
3,1,2,3,3,1,2,1,7,2,2,1,2719.122607,1,1,0,0
3,1,2,4,3,1,2,3,10,2,2,1,1599.908437,2,1,0,1
3,1,2,5,3,1,2,1,4,1,1,1,2268.51826,1,1,0,1
3,1,2,6,3,1,1,1,3,1,1,1,1198.838402,1,1,0,0
3,1,2,7,3,1,2,3,2,1,1,1,1307.743037,2,1,1,0
3,1,2,8,3,1,2,1,1,1,1,1,2724.87289,1,1,0,1
3,1,2,9,3,1,1,1,8,2,2,1,1053.217366,1,1,0,0
3,1,2,10,3,1,1,4,10,2,2,1,1768.262902,3,1,0,1
3,1,2,11,3,1,1,1,3,1,1,1,1214.734073,1,1,0,1
3,1,2,12,3,1,1,1,9,2,2,1,3555.4691,1,1,1,1
3,1,2,13,3,1,1,1,5,1,1,1,722.1099588,1,1,1,1
3,1,2,14,3,1,2,1,7,2,2,1,2602.975297,1,1,0,0
3,1,2,15,3,1,1,4,4,1,1,1,1655.883284,3,1,0,0
3,1,2,16,3,1,1,2,1,1,1,1,1082.531753,3,1,0,1
3,1,2,17,3,1,2,3,6,2,2,1,2476.584494,2,1,0,0
3,1,2,18,3,1,2,1,9,2,2,1,3167.011472,1,1,0,1
3,1,2,19,3,1,2,1,6,2,2,1,1381.290935,1,1,1,1
3,1,2,20,3,1,1,4,2,1,1,1,4003.037686,3,1,0,0
3,1,2,21,3,1,2,2,8,2,2,1,1312.320885,3,1,1,0
3,1,2,22,3,1,2,1,7,2,2,1,3753.369106,1,1,0,1
3,1,2,23,3,1,2,3,2,1,1,1,1736.790556,2,1,0,1
3,1,2,24,3,1,1,2,10,2,1,0,6672.933116,3,1,0,0
3,1,2,25,3,1,2,1,3,1,1,1,1298.768479,1,1,0,0
3,1,2,26,3,1,1,1,5,1,1,1,1571.890877,1,1,0,0
3,1,2,27,3,1,2,1,4,1,1,1,1297.936522,1,1,0,0
3,1,2,28,3,1,2,1,9,2,2,1,811.1476488,1,1,1,1
3,1,2,29,3,1,1,3,1,1,1,1,1463.919188,2,1,1,0
3,1,2,30,3,1,2,4,2,1,1,1,5747.309124,3,1,0,0
3,1,2,31,3,1,2,4,1,1,1,1,1386.522486,3,1,1,1
3,1,2,32,3,1,2,2,3,1,1,1,1384.145237,3,1,0,1
3,1,2,33,3,1,2,2,6,2,2,1,2997.866727,3,1,1,1
3,1,2,34,3,1,1,3,4,1,1,1,5259.419631,2,1,0,0
3,1,2,35,3,1,1,1,5,1,1,1,2710.622218,1,1,0,1
3,1,2,36,3,1,2,2,4,1,1,1,1135.904931,3,1,0,0
3,1,2,37,3,1,1,1,8,2,2,1,1615.694784,1,1,0,0
3,1,2,38,3,1,1,2,7,2,2,1,1627.911249,3,1,0,1
3,1,2,39,3,1,1,2,1,1,1,1,3720.189564,3,1,1,1
3,1,2,40,3,1,1,3,10,2,2,1,1808.802139,2,1,0,1
3,1,2,41,3,1,1,4,10,2,2,1,1709.447859,3,1,0,1
3,1,2,42,3,1,2,1,5,1,1,1,2702.525463,1,1,0,0
3,1,2,43,3,1,2,1,3,1,1,1,1511.979702,1,1,1,1
3,1,2,44,3,1,2,4,7,2,2,1,7401.434236,3,1,0,1
3,1,2,45,3,1,2,4,9,2,2,1,2886.580355,3,1,1,1
3,1,2,46,3,1,1,3,6,2,2,1,4153.125963,2,1,0,0
3,1,2,47,3,1,1,1,8,2,2,1,2415.816035,1,1,0,1
3,1,2,48,3,1,1,1,2,1,1,1,1404.240128,1,1,1,1
3,1,3,1,3,1,1,1,8,2,2,1,1352.00476,1,1,1,1
3,1,3,2,3,1,1,1,6,2,2,1,871.3310128,1,1,1,1
3,1,3,3,3,1,2,1,9,2,2,1,2113.470621,1,1,0,0
3,1,3,4,3,1,2,3,10,2,2,1,1154.407722,2,1,0,1
3,1,3,5,3,1,2,1,1,1,1,1,1889.357392,1,1,0,1
3,1,3,6,3,1,1,1,2,1,1,1,987.5536645,1,1,0,0
3,1,3,7,3,1,2,3,5,1,1,1,656.5010799,2,1,1,0
3,1,3,8,3,1,2,1,4,1,1,1,1547.504112,1,1,0,1
3,1,3,9,3,1,1,1,7,2,2,1,1163.267184,1,1,0,0
3,1,3,10,3,1,1,4,6,2,2,1,3538.433696,3,1,0,1
3,1,3,11,3,1,1,1,4,1,1,1,1266.539196,1,1,0,1
3,1,3,12,3,1,1,1,9,2,2,1,4709.041338,1,1,1,1
3,1,3,13,3,1,1,1,3,1,1,1,989.8135744,1,1,1,1
3,1,3,14,3,1,2,1,10,2,2,1,2091.561133,1,1,0,0
3,1,3,15,3,1,1,4,2,1,1,1,1757.691757,3,1,0,0
3,1,3,16,3,1,1,2,5,1,1,1,1652.345462,3,1,0,1
3,1,3,17,3,1,2,3,8,2,2,1,1287.25541,2,1,0,0
3,1,3,18,3,1,2,1,9,2,2,1,1544.820049,1,1,0,1
3,1,3,19,3,1,2,1,7,2,2,1,3536.662701,1,1,1,1
3,1,3,20,3,1,1,4,1,1,1,1,3848.794111,3,1,0,0
3,1,3,21,3,1,2,2,10,2,2,1,1027.77166,3,1,1,0
3,1,3,22,3,1,2,1,6,2,2,1,727.9798253,1,1,0,1
3,1,3,23,3,1,2,3,3,1,1,1,944.5018852,2,1,0,1
3,1,3,24,3,1,1,2,8,2,2,1,1048.257362,3,1,0,0
3,1,3,25,3,1,2,1,5,1,1,1,1034.890584,1,1,0,0
3,1,3,26,3,1,1,1,4,1,1,1,1590.827761,1,1,0,0
3,1,3,27,3,1,2,1,2,1,1,1,1140.070167,1,1,0,0
3,1,3,28,3,1,2,1,8,2,2,1,1235.749087,1,1,1,1
3,1,3,29,3,1,1,3,1,1,1,1,2431.578978,2,1,1,0
3,1,3,30,3,1,2,4,4,1,1,1,4979.487688,3,1,0,0
3,1,3,31,3,1,2,4,5,1,1,1,3226.136856,3,1,1,1
3,1,3,32,3,1,2,2,3,1,1,1,2646.98567,3,1,0,1
3,1,3,33,3,1,2,2,9,2,2,1,882.108625,3,1,1,1
3,1,3,34,3,1,1,3,1,1,1,1,979.8461185,2,1,0,0
3,1,3,35,3,1,1,1,2,1,1,1,1954.199396,1,1,0,1
3,1,3,36,3,1,2,2,3,1,1,1,2377.308441,3,1,0,0
3,1,3,37,3,1,1,1,10,2,2,1,2143.97732,1,1,0,0
3,1,3,38,3,1,1,2,6,2,2,1,1551.421525,3,1,0,1
3,1,3,39,3,1,1,2,5,1,1,1,1438.731245,3,1,1,1
3,1,3,40,3,1,1,3,7,2,2,1,6306.770015,2,1,0,1
3,1,3,41,3,1,1,4,10,2,2,1,2211.753134,3,1,0,1
3,1,3,42,3,1,2,1,1,1,1,1,5113.098083,1,1,0,0
3,1,3,43,3,1,2,1,2,1,1,1,1754.233764,1,1,1,1
3,1,3,44,3,1,2,4,8,2,2,1,2881.410037,3,1,0,1
3,1,3,45,3,1,2,4,7,2,2,1,2283.165515,3,1,1,1
3,1,3,46,3,1,1,3,9,2,2,1,4173.108644,2,1,0,0
3,1,3,47,3,1,1,1,6,2,2,1,2123.608636,1,1,0,1
3,1,3,48,3,1,1,1,4,1,1,1,3076.094745,1,1,1,1
3,1,4,1,3,1,1,1,9,2,2,1,1096.899124,1,1,1,1
3,1,4,2,3,1,1,1,10,2,2,1,3002.850134,1,1,1,1
3,1,4,3,3,1,2,1,6,2,2,1,1567.542578,1,1,0,0
3,1,4,4,3,1,2,3,7,2,2,1,2230.118388,2,1,0,1
3,1,4,5,3,1,2,1,5,1,1,1,810.247404,1,1,0,1
3,1,4,6,3,1,1,1,2,1,1,1,1247.103138,1,1,0,0
3,1,4,7,3,1,2,3,4,1,1,1,1067.110249,2,1,1,0
3,1,4,8,3,1,2,1,3,1,1,1,1269.035709,1,1,0,1
3,1,4,9,3,1,1,1,7,2,2,1,1159.355543,1,1,0,0
3,1,4,10,3,1,1,4,10,2,2,1,1606.368849,3,1,0,1
3,1,4,11,3,1,1,1,1,1,1,1,1707.617553,1,1,0,1
3,1,4,12,3,1,1,1,9,2,2,1,724.2974129,1,1,1,1
3,1,4,13,3,1,1,1,5,1,1,1,796.8992202,1,1,1,1
3,1,4,14,3,1,2,1,6,2,2,1,1650.319911,1,1,0,0
3,1,4,15,3,1,1,4,3,1,1,1,2533.270111,3,1,0,0
3,1,4,16,3,1,1,2,4,1,1,1,3045.208456,3,1,0,1
3,1,4,17,3,1,2,3,8,2,2,1,1848.891573,2,1,0,0
3,1,4,18,3,1,2,1,10,2,2,1,1860.209397,1,1,0,1
3,1,4,19,3,1,2,1,9,2,2,1,2951.201465,1,1,1,1
3,1,4,20,3,1,1,4,2,1,1,1,2702.611704,3,1,0,0
3,1,4,21,3,1,2,2,6,2,2,1,967.3584253,3,1,1,0
3,1,4,22,3,1,2,1,8,2,2,1,1214.047989,1,1,0,1
3,1,4,23,3,1,2,3,2,1,1,1,2299.027203,2,1,0,1
3,1,4,24,3,1,1,2,7,2,2,1,2755.765912,3,1,0,0
3,1,4,25,3,1,2,1,3,1,1,1,1434.711882,1,1,0,0
3,1,4,26,3,1,1,1,1,1,1,1,3870.672821,1,1,0,0
3,1,4,27,3,1,2,1,5,1,1,1,3201.148646,1,1,0,0
3,1,4,28,3,1,2,1,9,2,2,1,1086.227951,1,1,1,1
3,1,4,29,3,1,1,3,4,1,1,1,3704.197392,2,1,1,0
3,1,4,30,3,1,2,4,1,1,1,1,4089.42209,3,1,0,0
3,1,4,31,3,1,2,4,4,1,1,1,947.1731251,3,1,1,1
3,1,4,32,3,1,2,2,3,1,1,1,938.7121687,3,1,0,1
3,1,4,33,3,1,2,2,8,2,2,1,2954.581872,3,1,1,1
3,1,4,34,3,1,1,3,5,1,1,1,4921.725495,2,1,0,0
3,1,4,35,3,1,1,1,2,1,1,1,1506.714167,1,1,0,1
3,1,4,36,3,1,2,2,4,1,1,1,1035.701702,3,1,0,0
3,1,4,37,3,1,1,1,6,2,2,1,2599.046022,1,1,0,0
3,1,4,38,3,1,1,2,7,2,2,1,1099.996762,3,1,0,1
3,1,4,39,3,1,1,2,1,1,1,1,956.9337938,3,1,1,1
3,1,4,40,3,1,1,3,10,2,2,1,5212.746033,2,1,0,1
3,1,4,41,3,1,1,4,10,2,2,1,1097.031532,3,1,0,1
3,1,4,42,3,1,2,1,3,1,1,1,778.1415519,1,1,0,0
3,1,4,43,3,1,2,1,2,1,1,1,2120.657833,1,1,1,1
3,1,4,44,3,1,2,4,9,2,2,1,3553.234197,3,1,0,1
3,1,4,45,3,1,2,4,7,2,2,1,3640.802577,3,1,1,1
3,1,4,46,3,1,1,3,8,2,2,1,3804.433963,2,1,0,0
3,1,4,47,3,1,1,1,6,2,2,1,1137.832699,1,1,0,1
3,1,4,48,3,1,1,1,5,1,1,1,1601.073497,1,1,1,1
3,1,5,1,3,1,1,1,7,2,2,1,2691.325941,1,1,1,1
3,1,5,2,3,1,1,1,8,2,2,1,997.3463933,1,1,1,1
3,1,5,3,3,1,2,1,10,2,2,1,1018.570759,1,1,0,0
3,1,5,4,3,1,2,3,6,2,2,1,711.1156208,2,1,0,1
3,1,5,5,3,1,2,1,5,1,1,1,927.737067,1,1,0,1
3,1,5,6,3,1,1,1,3,1,1,1,1023.964213,1,1,0,0
3,1,5,7,3,1,2,3,1,1,1,1,1700.312681,2,1,1,0
3,1,5,8,3,1,2,1,2,1,1,1,965.1004393,1,1,0,1
3,1,5,9,3,1,1,1,9,2,2,1,1483.526126,1,1,0,0
3,1,5,10,3,1,1,4,8,2,2,1,3933.681633,3,1,0,1
3,1,5,11,3,1,1,1,5,1,1,1,901.2067707,1,1,0,1
3,1,5,12,3,1,1,1,6,2,2,1,798.4425891,1,1,1,1
3,1,5,13,3,1,1,1,3,1,1,1,754.9676178,1,1,1,1
3,1,5,14,3,1,2,1,10,2,2,1,2122.197675,1,1,0,0
3,1,5,15,3,1,1,4,4,1,1,1,1890.281362,3,1,0,0
3,1,5,16,3,1,1,2,2,1,1,1,1948.628329,3,1,0,1
3,1,5,17,3,1,2,3,7,2,2,1,2355.149526,2,1,0,0
3,1,5,18,3,1,2,1,8,2,2,1,1562.580972,1,1,0,1
3,1,5,19,3,1,2,1,10,2,2,1,2601.656669,1,1,1,1
3,1,5,20,3,1,1,4,1,1,1,1,3990.683362,3,1,0,0
3,1,5,21,3,1,2,2,7,2,2,1,684.7943561,3,1,1,0
3,1,5,22,3,1,2,1,6,2,2,1,1190.216184,1,1,0,1
3,1,5,23,3,1,2,3,3,1,1,1,611.8232172,2,1,0,1
3,1,5,24,3,1,1,2,9,2,2,1,1784.41313,3,1,0,0
3,1,5,25,3,1,2,1,4,1,1,1,1102.117211,1,1,0,0
3,1,5,26,3,1,1,1,5,1,1,1,1495.010661,1,1,0,0
3,1,5,27,3,1,2,1,1,1,1,1,1409.079266,1,1,0,0
3,1,5,28,3,1,2,1,9,2,2,1,1229.713149,1,1,1,1
3,1,5,29,3,1,1,3,2,1,1,1,2858.174227,2,1,1,0
3,1,5,30,3,1,2,4,1,1,1,1,2933.592186,3,1,0,0
3,1,5,31,3,1,2,4,4,1,1,1,1061.039687,3,1,1,1
3,1,5,32,3,1,2,2,3,1,1,1,1536.383779,3,1,0,1
3,1,5,33,3,1,2,2,10,2,2,1,1047.772936,3,1,1,1
3,1,5,34,3,1,1,3,5,1,1,1,6715.801832,2,1,0,0
3,1,5,35,3,1,1,1,2,1,1,1,2436.355919,1,1,0,1
3,1,5,36,3,1,2,2,3,1,1,1,1240.434977,3,1,0,0
3,1,5,37,3,1,1,1,6,2,2,1,1003.62759,1,1,0,0
3,1,5,38,3,1,1,2,7,2,2,1,1856.616111,3,1,0,1
3,1,5,39,3,1,1,2,1,1,1,1,1019.963125,3,1,1,1
3,1,5,40,3,1,1,3,8,2,2,1,2792.07996,2,1,0,1
3,1,5,41,3,1,1,4,9,2,2,1,1798.139301,3,1,0,1
3,1,5,42,3,1,2,1,2,1,1,1,970.749733,1,1,0,0
3,1,5,43,3,1,2,1,4,1,1,1,985.1283252,1,1,1,1
3,1,5,44,3,1,2,4,7,2,2,1,4391.1994,3,1,0,1
3,1,5,45,3,1,2,4,10,2,2,1,2316.631032,3,1,1,1
3,1,5,46,3,1,1,3,6,2,2,1,2173.071134,2,1,0,0
3,1,5,47,3,1,1,1,8,2,2,1,3876.125908,1,1,0,1
3,1,5,48,3,1,1,1,5,1,1,1,1382.594494,1,1,1,1
3,1,6,1,3,1,1,1,8,2,2,1,1492.601031,1,1,1,1
3,1,6,2,3,1,1,1,10,2,2,1,1670.197756,1,1,1,1
3,1,6,3,3,1,2,1,7,2,2,1,695.8310129,1,1,0,0
3,1,6,4,3,1,2,3,9,2,2,1,881.9464014,2,1,0,1
3,1,6,5,3,1,2,1,1,1,1,1,1243.603788,1,1,0,1
3,1,6,6,3,1,1,1,5,1,1,1,1006.910855,1,1,0,0
3,1,6,7,3,1,2,3,2,1,1,1,2644.461586,2,1,1,0
3,1,6,8,3,1,2,1,4,1,1,1,1287.662893,1,1,0,1
3,1,6,9,3,1,1,1,6,2,2,1,1681.469413,1,1,0,0
3,1,6,10,3,1,1,4,10,2,2,1,3403.254604,3,1,0,1
3,1,6,11,3,1,1,1,1,1,1,1,904.1655886,1,1,0,1
3,1,6,12,3,1,1,1,7,2,2,1,953.0875548,1,1,1,1
3,1,6,13,3,1,1,1,5,1,1,1,744.3759535,1,1,1,1
3,1,6,14,3,1,2,1,9,2,2,1,2175.565402,1,1,0,0
3,1,6,15,3,1,1,4,4,1,1,1,1726.509553,3,1,0,0
3,1,6,16,3,1,1,2,2,1,1,1,1854.482518,3,1,0,1
3,1,6,17,3,1,2,3,8,2,2,1,2425.570933,2,1,0,0
3,1,6,18,3,1,2,1,10,2,2,1,1982.307045,1,1,0,1
3,1,6,19,3,1,2,1,9,2,2,1,1163.599967,1,1,1,1
3,1,6,20,3,1,1,4,3,1,1,1,3506.702625,3,1,0,0
3,1,6,21,3,1,2,2,7,2,2,1,963.9982162,3,1,1,0
3,1,6,22,3,1,2,1,8,2,2,1,1410.774599,1,1,0,1
3,1,6,23,3,1,2,3,3,1,1,1,1792.180629,2,1,0,1
3,1,6,24,3,1,1,2,6,2,2,1,1429.640309,3,1,0,0
3,1,6,25,3,1,2,1,1,1,1,1,1177.766642,1,1,0,0
3,1,6,26,3,1,1,1,5,1,1,1,2072.429004,1,1,0,0
3,1,6,27,3,1,2,1,2,1,1,1,978.7285067,1,1,0,0
3,1,6,28,3,1,2,1,6,2,2,1,1184.701542,1,1,1,1
3,1,6,29,3,1,1,3,4,1,1,1,1998.418801,2,1,1,0
3,1,6,30,3,1,2,4,2,1,1,1,3347.923201,3,1,0,0
3,1,6,31,3,1,2,4,1,1,1,1,834.5088135,3,1,1,1
3,1,6,32,3,1,2,2,5,1,1,1,1382.499276,3,1,0,1
3,1,6,33,3,1,2,2,7,2,1,0,3212.541169,3,1,1,1
3,1,6,34,3,1,1,3,4,1,1,1,2881.203571,2,1,0,0
3,1,6,35,3,1,1,1,3,1,1,1,1378.658487,1,1,0,1
3,1,6,36,3,1,2,2,4,1,1,1,712.9500944,3,1,0,0
3,1,6,37,3,1,1,1,10,2,2,1,1177.96317,1,1,0,0
3,1,6,38,3,1,1,2,9,2,2,1,624.1393893,3,1,0,1
3,1,6,39,3,1,1,2,5,1,1,1,788.3225277,3,1,1,1
3,1,6,40,3,1,1,3,8,2,2,1,1370.32,2,1,0,1
3,1,6,41,3,1,1,4,7,2,2,1,2232.28853,3,1,0,1
3,1,6,42,3,1,2,1,2,1,1,1,2604.160876,1,1,0,0
3,1,6,43,3,1,2,1,3,1,1,1,1537.462277,1,1,1,1
3,1,6,44,3,1,2,4,6,2,2,1,5025.445065,3,1,0,1
3,1,6,45,3,1,2,4,9,2,2,1,3358.130465,3,1,1,1
3,1,6,46,3,1,1,3,10,2,2,1,3965.470412,2,1,0,0
3,1,6,47,3,1,1,1,8,2,2,1,1507.607359,1,1,0,1
3,1,6,48,3,1,1,1,1,1,1,1,1108.678932,1,1,1,1
3,1,7,1,3,1,1,1,8,2,2,1,1398.140071,1,1,1,1
3,1,7,2,3,1,1,1,10,2,2,1,810.7109915,1,1,1,1
3,1,7,3,3,1,2,1,6,2,2,1,983.5801471,1,1,0,0
3,1,7,4,3,1,2,3,9,2,2,1,1117.150789,2,1,0,1
3,1,7,5,3,1,2,1,5,1,1,1,1013.512651,1,1,0,1
3,1,7,6,3,1,1,1,3,1,1,1,1266.420253,1,1,0,0
3,1,7,7,3,1,2,3,2,1,1,1,757.0511976,2,1,1,0
3,1,7,8,3,1,2,1,1,1,1,1,1659.711889,1,1,0,1
3,1,7,9,3,1,1,1,9,2,2,1,2542.991987,1,1,0,0
3,1,7,10,3,1,1,4,10,2,2,1,1374.50832,3,1,0,1
3,1,7,11,3,1,1,1,2,1,1,1,757.0643423,1,1,0,1
3,1,7,12,3,1,1,1,6,2,2,1,1035.722862,1,1,1,1
3,1,7,13,3,1,1,1,5,1,1,1,887.1638468,1,1,1,1
3,1,7,14,3,1,2,1,8,2,2,1,2553.047608,1,1,0,0
3,1,7,15,3,1,1,4,3,1,1,1,1480.09795,3,1,0,0
3,1,7,16,3,1,1,2,1,1,1,1,1274.922888,3,1,0,1
3,1,7,17,3,1,2,3,7,2,2,1,2805.156275,2,1,0,0
3,1,7,18,3,1,2,1,8,2,2,1,2273.913318,1,1,0,1
3,1,7,19,3,1,2,1,7,2,2,1,4580.520148,1,1,1,1
3,1,7,20,3,1,1,4,4,1,1,1,1699.133514,3,1,0,0
3,1,7,21,3,1,2,2,10,2,2,1,884.31788,3,1,1,0
3,1,7,22,3,1,2,1,9,2,2,1,1077.575597,1,1,0,1
3,1,7,23,3,1,2,3,1,1,1,1,1343.924677,2,1,0,1
3,1,7,24,3,1,1,2,6,2,2,1,1087.86782,3,1,0,0
3,1,7,25,3,1,2,1,5,1,1,1,1465.148048,1,1,0,0
3,1,7,26,3,1,1,1,2,1,1,1,947.8133633,1,1,0,0
3,1,7,27,3,1,2,1,4,1,1,1,802.9223336,1,1,0,0
3,1,7,28,3,1,2,1,9,2,2,1,1376.370044,1,1,1,1
3,1,7,29,3,1,1,3,3,1,1,1,1574.298904,2,1,1,0
3,1,7,30,3,1,2,4,4,1,1,1,3989.240662,3,1,0,0
3,1,7,31,3,1,2,4,1,1,1,1,850.4355834,3,1,1,1
3,1,7,32,3,1,2,2,5,1,1,1,1061.469611,3,1,0,1
3,1,7,33,3,1,2,2,6,2,2,1,1120.405521,3,1,1,1
3,1,7,34,3,1,1,3,3,1,1,1,2280.968764,2,1,0,0
3,1,7,35,3,1,1,1,2,1,1,1,1090.532648,1,1,0,1
3,1,7,36,3,1,2,2,5,1,1,1,683.7713211,3,1,0,0
3,1,7,37,3,1,1,1,10,2,2,1,1149.92958,1,1,0,0
3,1,7,38,3,1,1,2,8,2,1,0,732.9449586,3,1,0,1
3,1,7,39,3,1,1,2,3,1,1,1,1164.249502,3,1,1,1
3,1,7,40,3,1,1,3,7,2,2,1,866.8406885,2,1,0,1
3,1,7,41,3,1,1,4,7,2,2,1,2213.516755,3,1,0,1
3,1,7,42,3,1,2,1,1,1,1,1,2202.325248,1,1,0,0
3,1,7,43,3,1,2,1,2,1,1,1,1455.202393,1,1,1,1
3,1,7,44,3,1,2,4,8,2,2,1,3010.465668,3,1,0,1
3,1,7,45,3,1,2,4,10,2,2,1,1143.452818,3,1,1,1
3,1,7,46,3,1,1,3,6,2,2,1,1823.181372,2,1,0,0
3,1,7,47,3,1,1,1,9,2,2,1,2043.505749,1,1,0,1
3,1,7,48,3,1,1,1,4,1,1,1,1151.574579,1,1,1,1
3,1,8,1,3,1,1,1,6,2,2,1,2712.728239,1,1,1,1
3,1,8,2,3,1,1,1,10,2,2,1,841.8499136,1,1,1,1
3,1,8,3,3,1,2,1,8,2,2,1,677.3432898,1,1,0,0
3,1,8,4,3,1,2,3,9,2,2,1,1767.327071,2,1,0,1
3,1,8,5,3,1,2,1,1,1,1,1,1061.711985,1,1,0,1
3,1,8,6,3,1,1,1,4,1,1,1,1136.614739,1,1,0,0
3,1,8,7,3,1,2,3,5,1,1,1,2504.306781,2,1,1,0
3,1,8,8,3,1,2,1,2,1,1,1,985.3934611,1,1,0,1
3,1,8,9,3,1,1,1,8,2,2,1,1767.094636,1,1,0,0
3,1,8,10,3,1,1,4,9,2,2,1,2029.808111,3,1,0,1
3,1,8,11,3,1,1,1,5,1,1,1,1233.712956,1,1,0,1
3,1,8,12,3,1,1,1,7,2,2,1,3582.011259,1,1,1,1
3,1,8,13,3,1,1,1,4,1,1,1,1331.251998,1,1,1,1
3,1,8,14,3,1,2,1,10,2,2,1,874.7973407,1,1,0,0
3,1,8,15,3,1,1,4,1,1,1,1,2445.371833,3,1,0,0
3,1,8,16,3,1,1,2,3,1,1,1,1056.915487,3,1,0,1
3,1,8,17,3,1,2,3,6,2,2,1,1579.919664,2,1,0,0
3,1,8,18,3,1,2,1,8,2,2,1,2618.748499,1,1,0,1
3,1,8,19,3,1,2,1,6,2,2,1,1919.168069,1,1,1,1
3,1,8,20,3,1,1,4,2,1,1,1,2591.788599,3,1,0,0
3,1,8,21,3,1,2,2,10,2,2,1,796.8360621,3,1,1,0
3,1,8,22,3,1,2,1,7,2,2,1,1106.432487,1,1,0,1
3,1,8,23,3,1,2,3,3,1,1,1,1107.366075,2,1,0,1
3,1,8,24,3,1,1,2,9,2,2,1,1180.449744,3,1,0,0
3,1,8,25,3,1,2,1,2,1,1,1,747.0433461,1,1,0,0
3,1,8,26,3,1,1,1,4,1,1,1,1378.242349,1,1,0,0
3,1,8,27,3,1,2,1,5,1,1,1,1000.342722,1,1,0,0
3,1,8,28,3,1,2,1,7,2,2,1,2821.596646,1,1,1,1
3,1,8,29,3,1,1,3,1,1,1,1,1865.992381,2,1,1,0
3,1,8,30,3,1,2,4,1,1,1,1,5021.002189,3,1,0,0
3,1,8,31,3,1,2,4,4,1,1,1,1681.139836,3,1,1,1
3,1,8,32,3,1,2,2,2,1,1,1,874.9602055,3,1,0,1
3,1,8,33,3,1,2,2,8,2,2,1,733.2998626,3,1,1,1
3,1,8,34,3,1,1,3,3,1,1,1,1092.989086,2,1,0,0
3,1,8,35,3,1,1,1,5,1,1,1,902.1300988,1,1,0,1
3,1,8,36,3,1,2,2,3,1,1,1,1687.539654,3,1,0,0
3,1,8,37,3,1,1,1,6,2,2,1,1681.02442,1,1,0,0
3,1,8,38,3,1,1,2,10,2,2,1,859.302419,3,1,0,1
3,1,8,39,3,1,1,2,1,1,1,1,758.5012717,3,1,1,1
3,1,8,40,3,1,1,3,9,2,2,1,709.2930095,2,1,0,1
3,1,8,41,3,1,1,4,9,2,2,1,1382.003308,3,1,0,1
3,1,8,42,3,1,2,1,5,1,1,1,1355.452173,1,1,0,0
3,1,8,43,3,1,2,1,2,1,1,1,2010.63238,1,1,1,1
3,1,8,44,3,1,2,4,6,2,2,1,4703.904364,3,1,0,1
3,1,8,45,3,1,2,4,7,2,2,1,785.2351491,3,1,1,1
3,1,8,46,3,1,1,3,10,2,2,1,3679.230021,2,1,0,0
3,1,8,47,3,1,1,1,8,2,2,1,881.5081413,1,1,0,1
3,1,8,48,3,1,1,1,4,1,1,1,1770.884128,1,1,1,1
3,1,9,1,3,1,1,1,9,2,2,1,2242.579792,1,1,1,1
3,1,9,2,3,1,1,1,10,2,2,1,2126.026922,1,1,1,1
3,1,9,3,3,1,2,1,8,2,2,1,782.2958876,1,1,0,0
3,1,9,4,3,1,2,3,6,2,2,1,820.2594232,2,1,0,1
3,1,9,5,3,1,2,1,5,1,1,1,848.1128358,1,1,0,1
3,1,9,6,3,1,1,1,4,1,1,1,1091.021563,1,1,0,0
3,1,9,7,3,1,2,3,3,1,1,1,948.5468962,2,1,1,0
3,1,9,8,3,1,2,1,2,1,1,1,1195.600983,1,1,0,1
3,1,9,9,3,1,1,1,8,2,2,1,1545.643029,1,1,0,0
3,1,9,10,3,1,1,4,6,2,2,1,1857.485258,3,1,0,1
3,1,9,11,3,1,1,1,3,1,1,1,3564.007001,1,1,0,1
3,1,9,12,3,1,1,1,9,2,2,1,922.4955763,1,1,1,1
3,1,9,13,3,1,1,1,1,1,1,1,1058.810875,1,1,1,1
3,1,9,14,3,1,2,1,10,2,2,1,1870.192883,1,1,0,0
3,1,9,15,3,1,1,4,4,1,1,1,1880.600202,3,1,0,0
3,1,9,16,3,1,1,2,5,1,1,1,1474.931801,3,1,0,1
3,1,9,17,3,1,2,3,7,2,2,1,1188.986041,2,1,0,0
3,1,9,18,3,1,2,1,10,2,2,1,1986.565254,1,1,0,1
3,1,9,19,3,1,2,1,9,2,2,1,720.3870541,1,1,1,1
3,1,9,20,3,1,1,4,2,1,1,1,3264.967935,3,1,0,0
3,1,9,21,3,1,2,2,8,2,2,1,771.2444828,3,1,1,0
3,1,9,22,3,1,2,1,6,2,2,1,1145.525818,1,1,0,1
3,1,9,23,3,1,2,3,4,1,1,1,1936.786004,2,1,0,1
3,1,9,24,3,1,1,2,7,2,2,1,1816.500387,3,1,0,0
3,1,9,25,3,1,2,1,1,1,1,1,1261.195755,1,1,0,0
3,1,9,26,3,1,1,1,2,1,1,1,3000.403956,1,1,0,0
3,1,9,27,3,1,2,1,5,1,1,1,1941.181751,1,1,0,0
3,1,9,28,3,1,2,1,9,2,2,1,980.8338871,1,1,1,1
3,1,9,29,3,1,1,3,3,1,1,1,2051.439638,2,1,1,0
3,1,9,30,3,1,2,4,2,1,1,1,3206.447203,3,1,0,0
3,1,9,31,3,1,2,4,1,1,1,1,907.4555864,3,1,1,1
3,1,9,32,3,1,2,2,4,1,1,1,1348.284197,3,1,0,1
3,1,9,33,3,1,2,2,10,2,2,1,1027.554613,3,1,1,1
3,1,9,34,3,1,1,3,3,1,1,1,3671.757796,2,1,0,0
3,1,9,35,3,1,1,1,5,1,1,1,2106.632221,1,1,0,1
3,1,9,36,3,1,2,2,5,1,1,1,939.1731916,3,1,0,0
3,1,9,37,3,1,1,1,8,2,2,1,1379.080718,1,1,0,0
3,1,9,38,3,1,1,2,7,2,2,1,1737.396811,3,1,0,1
3,1,9,39,3,1,1,2,4,1,1,1,2273.284622,3,1,1,1
3,1,9,40,3,1,1,3,6,2,2,1,4035.518319,2,1,0,1
3,1,9,41,3,1,1,4,10,2,2,1,1959.698969,3,1,0,1
3,1,9,42,3,1,2,1,3,1,1,1,1398.637001,1,1,0,0
3,1,9,43,3,1,2,1,1,1,1,1,2331.79798,1,1,1,1
3,1,9,44,3,1,2,4,8,2,2,1,3819.31718,3,1,0,1
3,1,9,45,3,1,2,4,7,2,2,1,1023.685291,3,1,1,1
3,1,9,46,3,1,1,3,6,2,2,1,1372.183328,2,1,0,0
3,1,9,47,3,1,1,1,9,2,2,1,3138.62394,1,1,0,1
3,1,9,48,3,1,1,1,2,1,1,1,882.1945461,1,1,1,1
3,1,10,1,3,1,1,1,9,2,2,1,1448.389001,1,1,1,1
3,1,10,2,3,1,1,1,8,2,2,1,1115.052461,1,1,1,1
