SID,CB,block,trial,eye,loc,locrep,eyerep,tarimg,urban,resp,corr,RT
1,1,1,1,2,2,99,99,9,2,2,1,2171.167757
1,1,1,2,2,2,1,1,8,2,2,1,1880.046154
1,1,1,3,1,2,1,0,4,1,1,1,1481.559138
1,1,1,4,1,1,0,1,7,2,2,1,1658.200532
1,1,1,5,2,3,0,0,10,2,2,1,1628.851671
1,1,1,6,2,3,1,1,2,1,1,1,1111.54029
1,1,1,7,1,4,0,0,9,2,1,0,927.9443999
1,1,1,8,1,4,1,1,1,1,1,1,1326.80684
1,1,1,9,1,1,0,1,5,1,1,1,757.71793
1,1,1,10,2,1,1,0,8,2,2,1,1291.030552
1,1,1,11,2,3,0,1,3,1,1,1,1324.211247
1,1,1,12,1,3,1,0,4,1,1,1,1044.0709
1,1,1,13,2,4,0,0,6,2,2,1,790.9249141
1,1,1,14,1,2,0,0,5,1,1,1,1155.736867
1,1,1,15,2,2,1,0,7,2,2,1,1394.150554
1,1,1,16,2,2,1,1,2,1,1,1,1199.402206
1,1,1,17,2,4,0,1,1,1,1,1,946.9298039
1,1,1,18,1,4,1,0,2,1,1,1,770.5073814
1,1,1,19,2,1,0,0,5,1,1,1,647.4661388
1,1,1,20,2,1,1,1,10,2,2,1,762.3086287
1,1,1,21,1,3,0,0,3,1,1,1,1401.208926
1,1,1,22,1,3,1,1,6,2,2,1,948.9043911
1,1,1,23,2,3,1,0,1,1,2,0,1451.626141
1,1,1,24,1,1,0,0,4,1,1,1,709.3278805
1,1,1,25,1,4,0,1,2,1,1,1,1085.424379
1,1,1,26,2,4,1,0,7,2,2,1,1359.01034
1,1,1,27,2,4,1,1,8,2,2,1,957.2711391
1,1,1,28,2,1,0,1,3,1,1,1,802.962554
1,1,1,29,1,2,0,0,9,2,2,1,1527.267353
1,1,1,30,1,2,1,1,1,1,1,1,1391.404919
1,1,1,31,1,1,0,1,10,2,1,0,1412.271615
1,1,1,32,2,1,1,0,9,2,2,1,768.4128891
1,1,1,33,1,1,1,0,5,1,1,1,709.8472556
1,1,1,34,1,3,0,1,10,2,2,1,1438.135854
1,1,1,35,1,3,1,1,8,2,2,1,1016.874882
1,1,1,36,2,3,1,0,4,1,1,1,1476.751392
1,1,1,37,1,2,0,0,2,1,2,0,1157.92786
1,1,1,38,1,2,1,1,7,2,2,1,1412.296302
1,1,1,39,1,4,0,1,6,2,2,1,1408.754292
1,1,1,40,2,4,1,0,7,2,2,1,1068.98231
1,1,1,41,1,4,1,0,1,1,1,1,1006.343109
1,1,1,42,2,2,0,0,4,1,1,1,1035.069681
1,1,1,43,2,2,1,1,9,2,2,1,886.0244177
1,1,1,44,2,3,0,1,8,2,2,1,1326.541702
1,1,1,45,1,1,0,0,5,1,1,1,1030.382161
1,1,1,46,1,3,0,1,10,2,2,1,2010.425012
1,1,1,47,2,1,0,0,6,2,2,1,710.4833298
1,1,1,48,2,4,0,1,3,1,1,1,782.5523952
1,1,2,1,2,2,99,99,7,2,2,1,1267.03927
1,1,2,2,2,2,1,1,6,2,2,1,1020.565651
1,1,2,3,1,2,1,0,1,1,1,1,1368.068306
1,1,2,4,1,1,0,1,8,2,1,0,1837.445854
1,1,2,5,2,3,0,0,10,2,2,1,1672.208912
1,1,2,6,2,3,1,1,5,1,1,1,1162.294137
1,1,2,7,1,4,0,0,7,2,2,1,1176.569258
1,1,2,8,1,4,1,1,2,1,1,1,901.7948257
1,1,2,9,1,1,0,1,4,1,1,1,742.3389769
1,1,2,10,2,1,1,0,6,2,2,1,644.7073594
1,1,2,11,2,3,0,1,5,1,1,1,1279.652391
1,1,2,12,1,3,1,0,2,1,1,1,929.3960854
1,1,2,13,2,4,0,0,9,2,2,1,1153.140632
1,1,2,14,1,2,0,0,1,1,1,1,1375.773652
1,1,2,15,2,2,1,0,10,2,2,1,1149.111949
1,1,2,16,2,2,1,1,3,1,1,1,867.6103263
1,1,2,17,2,4,0,1,4,1,1,1,1205.224657
1,1,2,18,1,4,1,0,3,1,1,1,1289.030958
1,1,2,19,2,1,0,0,2,1,1,1,642.4830233
1,1,2,20,2,1,1,1,8,2,2,1,628.8757164
1,1,2,21,1,3,0,0,4,1,1,1,1200.482634
1,1,2,22,1,3,1,1,7,2,2,1,1316.595028
1,1,2,23,2,3,1,0,1,1,2,0,1861.041514
1,1,2,24,1,1,0,0,5,1,1,1,710.7039039
1,1,2,25,1,4,0,1,3,1,1,1,1287.168582
1,1,2,26,2,4,1,0,10,2,2,1,808.1027645
1,1,2,27,2,4,1,1,6,2,2,1,779.8946053
1,1,2,28,2,1,0,1,5,1,1,1,609.5103992
1,1,2,29,1,2,0,0,8,2,1,0,2070.309923
1,1,2,30,1,2,1,1,1,1,2,0,1894.697982
1,1,2,31,1,1,0,1,9,2,2,1,1327.604498
1,1,2,32,2,1,1,0,8,2,2,1,1999.491846
1,1,2,33,1,1,1,0,4,1,1,1,619.3480688
1,1,2,34,1,3,0,1,7,2,1,0,1038.916263
1,1,2,35,1,3,1,1,10,2,2,1,1600.929168
1,1,2,36,2,3,1,0,2,1,1,1,1429.767182
1,1,2,37,1,2,0,0,4,1,1,1,1376.785152
1,1,2,38,1,2,1,1,6,2,2,1,1279.071139
1,1,2,39,1,4,0,1,9,2,1,0,1104.534818
1,1,2,40,2,4,1,0,7,2,2,1,2312.086083
1,1,2,41,1,4,1,0,5,1,1,1,1039.938662
1,1,2,42,2,2,0,0,3,1,1,1,1507.257626
1,1,2,43,2,2,1,1,10,2,2,1,827.753738
1,1,2,44,2,3,0,1,6,2,2,1,911.1637753
1,1,2,45,1,1,0,0,1,1,1,1,911.5443298
1,1,2,46,1,3,0,1,8,2,1,0,1439.60934
1,1,2,47,2,1,0,0,9,2,2,1,946.5896453
1,1,2,48,2,4,0,1,2,1,1,1,785.4958413
1,1,3,1,2,2,99,99,6,2,2,1,2121.7085
1,1,3,2,2,2,1,1,10,2,2,1,1169.697797
1,1,3,3,1,2,1,0,3,1,1,1,1703.449003
1,1,3,4,1,1,0,1,8,2,2,1,1367.85735
1,1,3,5,2,3,0,0,7,2,2,1,1893.694177
1,1,3,6,2,3,1,1,4,1,1,1,1341.778629
1,1,3,7,1,4,0,0,9,2,1,0,1500.774414
1,1,3,8,1,4,1,1,5,1,1,1,1075.859221
1,1,3,9,1,1,0,1,1,1,2,0,2093.853645
1,1,3,10,2,1,1,0,10,2,2,1,1869.920584
1,1,3,11,2,3,0,1,2,1,1,1,1127.740625
1,1,3,12,1,3,1,0,1,1,1,1,909.9839603
1,1,3,13,2,4,0,0,6,2,2,1,629.7368532
1,1,3,14,1,2,0,0,4,1,1,1,1273.703302
1,1,3,15,2,2,1,0,7,2,2,1,1242.384983
1,1,3,16,2,2,1,1,5,1,2,0,1525.63613
1,1,3,17,2,4,0,1,3,1,1,1,1700.505878
1,1,3,18,1,4,1,0,2,1,1,1,676.2097031
1,1,3,19,2,1,0,0,1,1,1,1,725.7160884
1,1,3,20,2,1,1,1,8,2,2,1,693.9668812
1,1,3,21,1,3,0,0,4,1,1,1,830.648132
1,1,3,22,1,3,1,1,6,2,2,1,1274.036727
1,1,3,23,2,3,1,0,3,1,1,1,1227.931929
1,1,3,24,1,1,0,0,5,1,1,1,1575.704531
1,1,3,25,1,4,0,1,2,1,1,1,1180.924315
1,1,3,26,2,4,1,0,7,2,2,1,770.7244289
1,1,3,27,2,4,1,1,8,2,2,1,712.3691103
1,1,3,28,2,1,0,1,3,1,1,1,752.2138364
1,1,3,29,1,2,0,0,9,2,2,1,2078.967777
1,1,3,30,1,2,1,1,4,1,2,0,1240.972091
1,1,3,31,1,1,0,1,10,2,2,1,1859.003768
1,1,3,32,2,1,1,0,6,2,2,1,636.3341993
1,1,3,33,1,1,1,0,5,1,1,1,838.8552203
1,1,3,34,1,3,0,1,9,2,1,0,1658.201173
1,1,3,35,1,3,1,1,7,2,1,0,2035.697099
1,1,3,36,2,3,1,0,1,1,2,0,1717.929309
1,1,3,37,1,2,0,0,4,1,1,1,701.2653837
1,1,3,38,1,2,1,1,8,2,1,0,2469.141265
1,1,3,39,1,4,0,1,10,2,2,1,1582.508665
1,1,3,40,2,4,1,0,9,2,2,1,858.8970076
1,1,3,41,1,4,1,0,1,1,1,1,693.4067896
1,1,3,42,2,2,0,0,2,1,1,1,758.5130227
1,1,3,43,2,2,1,1,7,2,2,1,1388.349583
1,1,3,44,2,3,0,1,10,2,2,1,1761.493338
1,1,3,45,1,1,0,0,5,1,1,1,1471.688447
1,1,3,46,1,3,0,1,6,2,2,1,784.9767868
1,1,3,47,2,1,0,0,8,2,2,1,677.9800669
1,1,3,48,2,4,0,1,3,1,1,1,870.741004
1,1,4,1,2,2,99,99,9,2,2,1,1155.676593
1,1,4,2,2,2,1,1,7,2,2,1,1336.873099
1,1,4,3,1,2,1,0,2,1,2,0,1047.594636
1,1,4,4,1,1,0,1,8,2,2,1,2257.550736
1,1,4,5,2,3,0,0,10,2,2,1,963.5084493
1,1,4,6,2,3,1,1,5,1,1,1,825.4607931
1,1,4,7,1,4,0,0,9,2,2,1,828.8091595
1,1,4,8,1,4,1,1,1,1,1,1,1472.67558
1,1,4,9,1,1,0,1,4,1,1,1,602.4844083
1,1,4,10,2,1,1,0,7,2,2,1,1670.276003
1,1,4,11,2,3,0,1,5,1,1,1,1008.264476
1,1,4,12,1,3,1,0,1,1,1,1,1428.360702
1,1,4,13,2,4,0,0,6,2,2,1,679.7555603
1,1,4,14,1,2,0,0,3,1,1,1,833.2135885
1,1,4,15,2,2,1,0,10,2,2,1,1083.987441
1,1,4,16,2,2,1,1,4,1,1,1,724.5616009
1,1,4,17,2,4,0,1,2,1,1,1,908.3569056
1,1,4,18,1,4,1,0,5,1,2,0,1300.886176
1,1,4,19,2,1,0,0,4,1,1,1,659.7140936
1,1,4,20,2,1,1,1,8,2,2,1,686.3115488
1,1,4,21,1,3,0,0,1,1,1,1,1255.481251
1,1,4,22,1,3,1,1,10,2,2,1,712.4386809
1,1,4,23,2,3,1,0,2,1,1,1,984.7044034
1,1,4,24,1,1,0,0,3,1,1,1,1333.780252
1,1,4,25,1,4,0,1,1,1,1,1,1076.106405
1,1,4,26,2,4,1,0,7,2,2,1,620.9273539
1,1,4,27,2,4,1,1,8,2,2,1,617.0637802
1,1,4,28,2,1,0,1,4,1,1,1,635.5977767
1,1,4,29,1,2,0,0,9,2,2,1,1230.036359
1,1,4,30,1,2,1,1,2,1,1,1,1105.152297
1,1,4,31,1,1,0,1,6,2,2,1,1672.636915
1,1,4,32,2,1,1,0,7,2,2,1,985.541495
1,1,4,33,1,1,1,0,3,1,1,1,694.7116394
1,1,4,34,1,3,0,1,9,2,2,1,966.5458318
1,1,4,35,1,3,1,1,8,2,2,1,1323.906675
1,1,4,36,2,3,1,0,5,1,1,1,866.9604663
1,1,4,37,1,2,0,0,1,1,1,1,1555.733596
1,1,4,38,1,2,1,1,10,2,2,1,1497.072744
1,1,4,39,1,4,0,1,6,2,2,1,713.9612194
1,1,4,40,2,4,1,0,8,2,2,1,688.775695
1,1,4,41,1,4,1,0,2,1,1,1,593.6053384
1,1,4,42,2,2,0,0,5,1,1,1,1133.79904
1,1,4,43,2,2,1,1,10,2,2,1,828.5933944
1,1,4,44,2,3,0,1,6,2,2,1,607.4790655
1,1,4,45,1,1,0,0,3,1,1,1,979.3836941
1,1,4,46,1,3,0,1,7,2,2,1,920.7879241
1,1,4,47,2,1,0,0,9,2,2,1,535.6876414
1,1,4,48,2,4,0,1,4,1,1,1,741.455398
1,1,5,1,2,2,99,99,10,2,2,1,1361.72135
1,1,5,2,2,2,1,1,9,2,2,1,639.2208989
1,1,5,3,1,2,1,0,2,1,1,1,737.1727977
1,1,5,4,1,1,0,1,8,2,2,1,1552.034492
1,1,5,5,2,3,0,0,7,2,2,1,861.3675659
1,1,5,6,2,3,1,1,3,1,1,1,790.575458
1,1,5,7,1,4,0,0,6,2,2,1,1163.143091
1,1,5,8,1,4,1,1,5,1,1,1,721.0292091
1,1,5,9,1,1,0,1,1,1,1,1,791.3631769
1,1,5,10,2,1,1,0,8,2,2,1,868.2210729
1,1,5,11,2,3,0,1,3,1,1,1,828.8918748
1,1,5,12,1,3,1,0,4,1,1,1,767.6989086
1,1,5,13,2,4,0,0,7,2,2,1,612.5500259
1,1,5,14,1,2,0,0,1,1,1,1,791.789898
1,1,5,15,2,2,1,0,9,2,2,1,572.5026794
1,1,5,16,2,2,1,1,2,1,1,1,577.023487
1,1,5,17,2,4,0,1,5,1,1,1,789.9275215
1,1,5,18,1,4,1,0,3,1,1,1,698.8240001
1,1,5,19,2,1,0,0,2,1,1,1,658.9754268
1,1,5,20,2,1,1,1,10,2,2,1,853.1521419
1,1,5,21,1,3,0,0,5,1,1,1,1030.838377
1,1,5,22,1,3,1,1,6,2,2,1,641.1220682
1,1,5,23,2,3,1,0,1,1,1,1,580.3776242
1,1,5,24,1,1,0,0,4,1,1,1,697.8266076
1,1,5,25,1,4,0,1,2,1,1,1,842.3600404
1,1,5,26,2,4,1,0,10,2,2,1,1172.086602
1,1,5,27,2,4,1,1,7,2,2,1,585.347595
1,1,5,28,2,1,0,1,1,1,1,1,597.7619422
1,1,5,29,1,2,0,0,9,2,1,0,1529.44456
1,1,5,30,1,2,1,1,5,1,1,1,951.7506948
1,1,5,31,1,1,0,1,8,2,2,1,1589.672835
1,1,5,32,2,1,1,0,10,2,2,1,634.1034512
1,1,5,33,1,1,1,0,3,1,1,1,1060.132415
1,1,5,34,1,3,0,1,8,2,2,1,597.6882037
1,1,5,35,1,3,1,1,6,2,2,1,592.8455119
1,1,5,36,2,3,1,0,4,1,1,1,636.6333209
1,1,5,37,1,2,0,0,1,1,1,1,854.978611
1,1,5,38,1,2,1,1,7,2,1,0,1576.990144
1,1,5,39,1,4,0,1,9,2,1,0,1245.798111
1,1,5,40,2,4,1,0,7,2,2,1,2152.321174
1,1,5,41,1,4,1,0,5,1,1,1,869.8115791
1,1,5,42,2,2,0,0,4,1,1,1,1118.400209
1,1,5,43,2,2,1,1,6,2,2,1,605.616689
1,1,5,44,2,3,0,1,8,2,2,1,1425.159491
1,1,5,45,1,1,0,0,2,1,1,1,716.3089871
1,1,5,46,1,3,0,1,10,2,2,1,987.157008
1,1,5,47,2,1,0,0,9,2,2,1,718.9654946
1,1,5,48,2,4,0,1,3,1,1,1,1110.900689
1,1,6,1,2,2,99,99,6,2,2,1,981.3015347
1,1,6,2,2,2,1,1,10,2,2,1,994.5770187
1,1,6,3,1,2,1,0,3,1,1,1,607.1254416
1,1,6,4,1,1,0,1,7,2,2,1,875.5314377
1,1,6,5,2,3,0,0,8,2,2,1,916.5290483
1,1,6,6,2,3,1,1,5,1,1,1,1083.358741
1,1,6,7,1,4,0,0,9,2,2,1,947.4190424
1,1,6,8,1,4,1,1,2,1,1,1,1017.486269
1,1,6,9,1,1,0,1,4,1,1,1,581.0079275
1,1,6,10,2,1,1,0,10,2,2,1,826.580335
1,1,6,11,2,3,0,1,2,1,1,1,1230.000131
1,1,6,12,1,3,1,0,3,1,1,1,593.369696
1,1,6,13,2,4,0,0,6,2,2,1,525.9660296
1,1,6,14,1,2,0,0,5,1,1,1,1364.330088
1,1,6,15,2,2,1,0,7,2,2,1,1241.838036
1,1,6,16,2,2,1,1,4,1,1,1,683.672995
1,1,6,17,2,4,0,1,1,1,1,1,1228.311201
1,1,6,18,1,4,1,0,4,1,1,1,526.9669488
1,1,6,19,2,1,0,0,1,1,1,1,629.4925545
1,1,6,20,2,1,1,1,8,2,2,1,688.3223639
1,1,6,21,1,3,0,0,5,1,1,1,520.3195888
1,1,6,22,1,3,1,1,7,2,2,1,751.9964683
1,1,6,23,2,3,1,0,2,1,2,0,573.2605823
1,1,6,24,1,1,0,0,3,1,1,1,817.3335347
1,1,6,25,1,4,0,1,2,1,1,1,1117.185128
1,1,6,26,2,4,1,0,9,2,2,1,724.2599145
1,1,6,27,2,4,1,1,8,2,2,1,1427.911859
1,1,6,28,2,1,0,1,3,1,1,1,558.1695298
1,1,6,29,1,2,0,0,10,2,2,1,1468.47858
1,1,6,30,1,2,1,1,4,1,2,0,1509.957735
1,1,6,31,1,1,0,1,6,2,2,1,701.3147564
1,1,6,32,2,1,1,0,9,2,2,1,997.5316859
1,1,6,33,1,1,1,0,1,1,1,1,681.722453
1,1,6,34,1,3,0,1,8,2,2,1,1682.384496
1,1,6,35,1,3,1,1,10,2,2,1,843.1541714
1,1,6,36,2,3,1,0,5,1,1,1,612.694938
1,1,6,37,1,2,0,0,2,1,1,1,2432.378164
1,1,6,38,1,2,1,1,6,2,2,1,635.1428426
1,1,6,39,1,4,0,1,7,2,1,0,1693.340104
1,1,6,40,2,4,1,0,6,2,2,1,821.3333641
1,1,6,41,1,4,1,0,4,1,1,1,704.3175139
1,1,6,42,2,2,0,0,1,1,1,1,767.586698
1,1,6,43,2,2,1,1,10,2,2,1,781.3183984
1,1,6,44,2,3,0,1,9,2,2,1,601.3501188
1,1,6,45,1,1,0,0,5,1,1,1,533.742229
1,1,6,46,1,3,0,1,7,2,2,1,788.3508013
1,1,6,47,2,1,0,0,8,2,2,1,560.1838716
1,1,6,48,2,4,0,1,3,1,1,1,598.3060036
1,1,7,1,2,2,99,99,8,2,2,1,675.1199772
1,1,7,2,2,2,1,1,7,2,2,1,467.9027794
1,1,7,3,1,2,1,0,3,1,1,1,693.0836229
1,1,7,4,1,1,0,1,9,2,2,1,1230.149853
1,1,7,5,2,3,0,0,6,2,2,1,1121.314481
1,1,7,6,2,3,1,1,1,1,1,1,728.9153749
1,1,7,7,1,4,0,0,9,2,1,0,1888.588592
1,1,7,8,1,4,1,1,2,1,1,1,656.38849
1,1,7,9,1,1,0,1,5,1,1,1,666.3553622
1,1,7,10,2,1,1,0,10,2,2,1,1282.881172
1,1,7,11,2,3,0,1,2,1,1,1,1635.131301
1,1,7,12,1,3,1,0,3,1,1,1,1365.381983
1,1,7,13,2,4,0,0,8,2,2,1,674.6349066
1,1,7,14,1,2,0,0,1,1,1,1,1627.158252
1,1,7,15,2,2,1,0,7,2,2,1,565.5690219
1,1,7,16,2,2,1,1,5,1,1,1,650.2746116
1,1,7,17,2,4,0,1,4,1,1,1,836.0018633
1,1,7,18,1,4,1,0,3,1,1,1,638.2437043
1,1,7,19,2,1,0,0,2,1,1,1,568.679181
1,1,7,20,2,1,1,1,6,2,2,1,685.4593889
1,1,7,21,1,3,0,0,4,1,1,1,909.4825389
1,1,7,22,1,3,1,1,10,2,1,0,1341.621534
1,1,7,23,2,3,1,0,5,1,1,1,931.807653
1,1,7,24,1,1,0,0,1,1,1,1,1986.356465
1,1,7,25,1,4,0,1,4,1,1,1,583.1729522
1,1,7,26,2,4,1,0,9,2,2,1,612.0649552
1,1,7,27,2,4,1,1,8,2,2,1,1800.514438
1,1,7,28,2,1,0,1,2,1,1,1,643.9398384
1,1,7,29,1,2,0,0,7,2,2,1,1438.051215
1,1,7,30,1,2,1,1,1,1,1,1,1048.339715
1,1,7,31,1,1,0,1,6,2,2,1,1394.115608
1,1,7,32,2,1,1,0,8,2,2,1,1357.980567
1,1,7,33,1,1,1,0,3,1,1,1,483.4336978
1,1,7,34,1,3,0,1,9,2,2,1,804.3982094
1,1,7,35,1,3,1,1,6,2,2,1,903.6209742
1,1,7,36,2,3,1,0,5,1,1,1,1134.90191
1,1,7,37,1,2,0,0,1,1,2,0,1125.636194
1,1,7,38,1,2,1,1,10,2,1,0,2067.760496
1,1,7,39,1,4,0,1,7,2,2,1,1003.39806
1,1,7,40,2,4,1,0,6,2,2,1,727.4803607
1,1,7,41,1,4,1,0,3,1,1,1,605.8972157
1,1,7,42,2,2,0,0,4,1,1,1,825.4264887
1,1,7,43,2,2,1,1,10,2,2,1,1356.807485
1,1,7,44,2,3,0,1,8,2,2,1,794.2861045
1,1,7,45,1,1,0,0,2,1,1,1,774.1308242
1,1,7,46,1,3,0,1,9,2,2,1,1099.160568
1,1,7,47,2,1,0,0,7,2,2,1,1314.783948
1,1,7,48,2,4,0,1,5,1,1,1,673.7769758
1,1,8,1,2,2,99,99,10,2,2,1,1649.430787
1,1,8,2,2,2,1,1,8,2,2,1,674.9122272
1,1,8,3,1,2,1,0,3,1,1,1,644.0616671
1,1,8,4,1,1,0,1,9,2,2,1,926.0720848
1,1,8,5,2,3,0,0,7,2,2,1,981.1457222
1,1,8,6,2,3,1,1,4,1,1,1,952.96257
1,1,8,7,1,4,0,0,9,2,2,1,1462.646511
1,1,8,8,1,4,1,1,5,1,1,1,1016.889629
1,1,8,9,1,1,0,1,2,1,2,0,707.6960168
1,1,8,10,2,1,1,0,8,2,2,1,1243.021057
1,1,8,11,2,3,0,1,5,1,1,1,1011.828608
1,1,8,12,1,3,1,0,4,1,1,1,831.788513
1,1,8,13,2,4,0,0,6,2,2,1,730.3244203
1,1,8,14,1,2,0,0,1,1,1,1,744.7592007
1,1,8,15,2,2,1,0,7,2,2,1,1295.134577
1,1,8,16,2,2,1,1,3,1,1,1,823.6394537
1,1,8,17,2,4,0,1,2,1,1,1,643.2640096
1,1,8,18,1,4,1,0,1,1,1,1,613.0312494
1,1,8,19,2,1,0,0,5,1,1,1,536.2009251
1,1,8,20,2,1,1,1,10,2,2,1,758.1709404
1,1,8,21,1,3,0,0,2,1,1,1,635.0710277
1,1,8,22,1,3,1,1,7,2,2,1,653.8913217
1,1,8,23,2,3,1,0,4,1,1,1,975.1386042
1,1,8,24,1,1,0,0,3,1,1,1,931.8788266
1,1,8,25,1,4,0,1,1,1,2,0,3074.818868
1,1,8,26,2,4,1,0,8,2,2,1,763.404446
1,1,8,27,2,4,1,1,10,2,2,1,592.9859355
1,1,8,28,2,1,0,1,2,1,1,1,532.7406687
1,1,8,29,1,2,0,0,9,2,2,1,851.0262307
1,1,8,30,1,2,1,1,3,1,1,1,1524.575579
1,1,8,31,1,1,0,1,6,2,2,1,1227.997011
1,1,8,32,2,1,1,0,7,2,2,1,879.0740889
1,1,8,33,1,1,1,0,4,1,1,1,616.0711967
1,1,8,34,1,3,0,1,8,2,2,1,642.7728475
1,1,8,35,1,3,1,1,9,2,2,1,2133.171622
1,1,8,36,2,3,1,0,5,1,1,1,859.4112531
1,1,8,37,1,2,0,0,1,1,1,1,1253.119697
1,1,8,38,1,2,1,1,10,2,1,0,1478.791703
1,1,8,39,1,4,0,1,6,2,2,1,934.563547
1,1,8,40,2,4,1,0,8,2,2,1,925.1163705
1,1,8,41,1,4,1,0,3,1,1,1,587.3019842
1,1,8,42,2,2,0,0,4,1,1,1,1031.772932
1,1,8,43,2,2,1,1,9,2,2,1,610.0624757
1,1,8,44,2,3,0,1,10,2,2,1,1477.472746
1,1,8,45,1,1,0,0,2,1,1,1,630.3552942
1,1,8,46,1,3,0,1,7,2,2,1,592.7919713
1,1,8,47,2,1,0,0,6,2,2,1,820.7460214
1,1,8,48,2,4,0,1,5,1,1,1,615.2042891
1,1,9,1,2,2,99,99,10,2,2,1,593.0247283
1,1,9,2,2,2,1,1,9,2,2,1,581.7453119
1,1,9,3,1,2,1,0,3,1,1,1,1050.170352
1,1,9,4,1,1,0,1,8,2,2,1,812.5456657
1,1,9,5,2,3,0,0,6,2,2,1,543.510328
1,1,9,6,2,3,1,1,4,1,1,1,1077.274679
1,1,9,7,1,4,0,0,8,2,2,1,1287.090996
1,1,9,8,1,4,1,1,2,1,1,1,1087.583954
1,1,9,9,1,1,0,1,1,1,1,1,936.2919119
1,1,9,10,2,1,1,0,6,2,2,1,525.3071928
1,1,9,11,2,3,0,1,2,1,1,1,1357.296082
1,1,9,12,1,3,1,0,3,1,1,1,1082.454323
1,1,9,13,2,4,0,0,7,2,1,0,666.750985
1,1,9,14,1,2,0,0,5,1,2,0,4162.592297
1,1,9,15,2,2,1,0,10,2,2,1,751.9361951
1,1,9,16,2,2,1,1,4,1,1,1,622.1632742
1,1,9,17,2,4,0,1,1,1,1,1,1048.308937
1,1,9,18,1,4,1,0,2,1,1,1,593.9025364
1,1,9,19,2,1,0,0,3,1,1,1,703.1316074
1,1,9,20,2,1,1,1,9,2,2,1,565.3606307
1,1,9,21,1,3,0,0,4,1,1,1,946.3588119
1,1,9,22,1,3,1,1,7,2,2,1,1921.31307
1,1,9,23,2,3,1,0,5,1,1,1,976.6544101
1,1,9,24,1,1,0,0,1,1,1,1,3142.968254
1,1,9,25,1,4,0,1,4,1,1,1,620.7987925
1,1,9,26,2,4,1,0,6,2,2,1,606.9167297
1,1,9,27,2,4,1,1,8,2,2,1,754.5920613
1,1,9,28,2,1,0,1,2,1,1,1,672.4150589
1,1,9,29,1,2,0,0,9,2,2,1,1961.451147
1,1,9,30,1,2,1,1,1,1,1,1,686.8870292
1,1,9,31,1,1,0,1,10,2,2,1,1839.152098
1,1,9,32,2,1,1,0,7,2,2,1,633.3647844
1,1,9,33,1,1,1,0,3,1,1,1,516.0081343
1,1,9,34,1,3,0,1,9,2,2,1,1755.268531
1,1,9,35,1,3,1,1,6,2,2,1,2457.96412
1,1,9,36,2,3,1,0,5,1,1,1,860.4669952
1,1,9,37,1,2,0,0,4,1,1,1,997.7929764
1,1,9,38,1,2,1,1,10,2,2,1,1457.246613
1,1,9,39,1,4,0,1,8,2,2,1,787.7522375
1,1,9,40,2,4,1,0,7,2,2,1,704.3470092
1,1,9,41,1,4,1,0,2,1,1,1,728.2574998
1,1,9,42,2,2,0,0,5,1,2,0,895.4052296
1,1,9,43,2,2,1,1,8,2,2,1,1087.608319
1,1,9,44,2,3,0,1,10,2,2,1,719.9237737
1,1,9,45,1,1,0,0,3,1,1,1,1478.320418
1,1,9,46,1,3,0,1,6,2,2,1,685.5892327
1,1,9,47,2,1,0,0,9,2,2,1,1966.610593
1,1,9,48,2,4,0,1,1,1,1,1,620.108216
1,1,10,1,2,2,99,99,9,2,2,1,613.8991188
1,1,10,2,2,2,1,1,8,2,2,1,1105.062849
1,1,10,3,1,2,1,0,2,1,1,1,569.0626209
1,1,10,4,1,1,0,1,6,2,2,1,1517.702195
1,1,10,5,2,3,0,0,7,2,2,1,1204.435014
1,1,10,6,2,3,1,1,3,1,1,1,831.9619586
1,1,10,7,1,4,0,0,10,2,2,1,1554.20144
1,1,10,8,1,4,1,1,4,1,1,1,838.7686578
1,1,10,9,1,1,0,1,5,1,1,1,1713.102327
1,1,10,10,2,1,1,0,6,2,2,1,560.6012953
1,1,10,11,2,3,0,1,2,1,1,1,998.6278238
1,1,10,12,1,3,1,0,1,1,1,1,601.4559174
1,1,10,13,2,4,0,0,8,2,2,1,844.0848787
1,1,10,14,1,2,0,0,4,1,1,1,622.0087441
1,1,10,15,2,2,1,0,9,2,2,1,584.1309107
1,1,10,16,2,2,1,1,3,1,1,1,643.2745894
1,1,10,17,2,4,0,1,5,1,1,1,1069.331125
1,1,10,18,1,4,1,0,3,1,1,1,1310.286544
1,1,10,19,2,1,0,0,5,1,1,1,549.1939587
1,1,10,20,2,1,1,1,7,2,2,1,785.7346897
1,1,10,21,1,3,0,0,2,1,1,1,997.7583514
1,1,10,22,1,3,1,1,9,2,2,1,1041.54071
1,1,10,23,2,3,1,0,4,1,1,1,1363.121739
1,1,10,24,1,1,0,0,1,1,1,1,888.0945442
1,1,10,25,1,4,0,1,2,1,1,1,670.8992531
1,1,10,26,2,4,1,0,10,2,2,1,1374.950347
1,1,10,27,2,4,1,1,6,2,2,1,651.3085527
1,1,10,28,2,1,0,1,4,1,1,1,595.9248932
1,1,10,29,1,2,0,0,7,2,2,1,2023.626437
1,1,10,30,1,2,1,1,3,1,1,1,1010.10409
1,1,10,31,1,1,0,1,8,2,1,0,613.0892783
1,1,10,32,2,1,1,0,10,2,2,1,599.9208755
1,1,10,33,1,1,1,0,5,1,1,1,699.4802722
1,1,10,34,1,3,0,1,6,2,2,1,746.8969742
1,1,10,35,1,3,1,1,7,2,1,0,896.6353791
1,1,10,36,2,3,1,0,1,1,1,1,1472.914749
1,1,10,37,1,2,0,0,2,1,1,1,569.1690608
1,1,10,38,1,2,1,1,9,2,2,1,1318.261196
1,1,10,39,1,4,0,1,8,2,2,1,2084.715528
1,1,10,40,2,4,1,0,7,2,2,1,837.2518902
1,1,10,41,1,4,1,0,4,1,1,1,662.6443951
1,1,10,42,2,2,0,0,3,1,1,1,896.4003779
1,1,10,43,2,2,1,1,8,2,2,1,735.4716839
1,1,10,44,2,3,0,1,6,2,2,1,1005.468827
1,1,10,45,1,1,0,0,5,1,1,1,1416.162119
1,1,10,46,1,3,0,1,10,2,1,0,1266.595237
1,1,10,47,2,1,0,0,9,2,2,1,635.4769098
1,1,10,48,2,4,0,1,1,1,1,1,716.7209606
2,1,1,1,2,3,99,99,1,1,1,1,2084.217634
2,1,1,2,1,3,1,0,3,1,1,1,2476.267283
2,1,1,3,1,3,1,1,4,1,1,1,1821.732834
2,1,1,4,1,2,0,1,6,2,2,1,1521.638866
2,1,1,5,2,2,1,0,5,1,1,1,968.9968334
2,1,1,6,1,1,0,0,7,2,2,1,2678.752397
2,1,1,7,1,1,1,1,8,2,2,1,1135.790298
2,1,1,8,2,1,1,0,3,1,1,1,679.1278217
2,1,1,9,1,4,0,0,2,1,1,1,1904.469607
2,1,1,10,1,4,1,1,1,1,1,1,728.6505577
2,1,1,11,1,2,0,1,4,1,1,1,2688.4163
2,1,1,12,2,2,1,0,10,2,2,1,1137.379522
2,1,1,13,1,2,1,0,5,1,1,1,1552.47564
2,1,1,14,2,4,0,0,6,2,2,1,934.3666974
2,1,1,15,1,4,1,0,7,2,2,1,2757.432915
2,1,1,16,2,1,0,0,2,1,1,1,771.3457554
2,1,1,17,2,1,1,1,10,2,2,1,817.1754779
2,1,1,18,2,3,0,1,9,2,2,1,964.9485931
2,1,1,19,1,4,0,0,8,2,2,1,1930.780124
2,1,1,20,1,3,0,1,6,2,2,1,1177.976701
2,1,1,21,1,2,0,1,3,1,1,1,1031.527351
2,1,1,22,2,4,0,0,1,1,1,1,690.4453898
2,1,1,23,1,4,1,0,10,2,2,1,1707.721344
2,1,1,24,1,1,0,1,9,2,2,1,819.7156069
2,1,1,25,1,1,1,1,7,2,2,1,1591.376193
2,1,1,26,2,3,0,0,8,2,2,1,4812.559772
2,1,1,27,2,3,1,1,4,1,1,1,1577.310426
2,1,1,28,1,3,1,0,5,1,1,1,1207.206939
2,1,1,29,1,2,0,1,6,2,2,1,955.025964
2,1,1,30,1,2,1,1,10,2,2,1,2425.772482
2,1,1,31,2,4,0,0,1,1,1,1,741.1331931
2,1,1,32,2,4,1,1,3,1,1,1,628.0886387
2,1,1,33,2,1,0,1,5,1,1,1,783.427959
2,1,1,34,1,1,1,0,7,2,2,1,1364.482053
2,1,1,35,1,3,0,1,9,2,2,1,1386.298693
2,1,1,36,2,2,0,0,2,1,1,1,734.9648123
2,1,1,37,2,2,1,1,8,2,2,1,1422.364805
2,1,1,38,2,2,1,1,4,1,1,1,705.6435234
2,1,1,39,1,3,0,0,10,2,2,1,1674.11457
2,1,1,40,2,3,1,0,9,2,2,1,1011.938895
2,1,1,41,2,4,0,1,6,2,2,1,863.7897134
2,1,1,42,1,4,1,0,1,1,1,1,754.100258
2,1,1,43,2,1,0,0,5,1,2,0,672.5542001
2,1,1,44,2,1,1,1,7,2,2,1,1057.964825
2,1,1,45,1,1,1,0,4,1,1,1,764.2216603
2,1,1,46,2,2,0,0,3,1,1,1,834.1535933
2,1,1,47,2,4,0,1,8,2,2,1,821.490459
2,1,1,48,2,3,0,1,2,1,1,1,824.6153659
2,1,2,1,2,3,99,99,1,1,2,0,891.8542428
2,1,2,2,1,3,1,0,5,1,1,1,1381.018379
2,1,2,3,1,3,1,1,4,1,1,1,1818.622675
2,1,2,4,1,2,0,1,9,2,2,1,1294.452978
2,1,2,5,2,2,1,0,2,1,1,1,662.8139935
2,1,2,6,1,1,0,0,8,2,2,1,2145.249016
2,1,2,7,1,1,1,1,7,2,2,1,807.9136093
2,1,2,8,2,1,1,0,3,1,1,1,716.8870324
2,1,2,9,1,4,0,0,4,1,1,1,2708.487583
2,1,2,10,1,4,1,1,1,1,1,1,876.4172608
2,1,2,11,1,2,0,1,5,1,1,1,1086.090911
2,1,2,12,2,2,1,0,10,2,2,1,847.3928492
2,1,2,13,1,2,1,0,2,1,1,1,2146.357658
2,1,2,14,2,4,0,0,9,2,2,1,872.9412949
2,1,2,15,1,4,1,0,6,2,2,1,1674.66312
2,1,2,16,2,1,0,0,5,1,1,1,915.6390574
2,1,2,17,2,1,1,1,10,2,2,1,611.4702387
2,1,2,18,2,3,0,1,7,2,2,1,1343.439988
2,1,2,19,1,4,0,0,8,2,2,1,1950.490088
2,1,2,20,1,3,0,1,9,2,2,1,1708.889618
2,1,2,21,1,2,0,1,4,1,1,1,1429.326354
2,1,2,22,2,4,0,0,1,1,1,1,816.7654281
2,1,2,23,1,4,1,0,6,2,2,1,1148.753195
2,1,2,24,1,1,0,1,7,2,2,1,1426.916069
2,1,2,25,1,1,1,1,8,2,2,1,1070.375325
2,1,2,26,2,3,0,0,10,2,2,1,911.9056482
2,1,2,27,2,3,1,1,3,1,1,1,880.6604271
2,1,2,28,1,3,1,0,2,1,1,1,2066.241164
2,1,2,29,1,2,0,1,7,2,2,1,771.3624267
2,1,2,30,1,2,1,1,9,2,2,1,2385.233332
2,1,2,31,2,4,0,0,1,1,1,1,894.2395211
2,1,2,32,2,4,1,1,5,1,1,1,527.0781977
2,1,2,33,2,1,0,1,4,1,1,1,687.0983058
2,1,2,34,1,1,1,0,8,2,2,1,1479.620779
2,1,2,35,1,3,0,1,6,2,2,1,1737.321557
2,1,2,36,2,2,0,0,3,1,1,1,760.2593413
2,1,2,37,2,2,1,1,10,2,2,1,1566.555835
2,1,2,38,2,2,1,1,2,1,2,0,636.4743023
2,1,2,39,1,3,0,0,9,2,2,1,1182.80721
2,1,2,40,2,3,1,0,8,2,2,1,811.7464052
2,1,2,41,2,4,0,1,6,2,2,1,656.2855768
2,1,2,42,1,4,1,0,3,1,1,1,1722.259679
2,1,2,43,2,1,0,0,2,1,1,1,650.2236359
2,1,2,44,2,1,1,1,7,2,2,1,716.445243
2,1,2,45,1,1,1,0,1,1,1,1,1443.985556
2,1,2,46,2,2,0,0,4,1,1,1,679.0338854
2,1,2,47,2,4,0,1,10,2,2,1,568.2848407
2,1,2,48,2,3,0,1,5,1,1,1,1045.66846
2,1,3,1,2,3,99,99,1,1,1,1,1355.935768
2,1,3,2,1,3,1,0,2,1,1,1,801.8340353
2,1,3,3,1,3,1,1,4,1,1,1,1222.482337
2,1,3,4,1,2,0,1,9,2,2,1,762.0518266
2,1,3,5,2,2,1,0,3,1,1,1,687.9530305
2,1,3,6,1,1,0,0,8,2,2,1,1528.833493
2,1,3,7,1,1,1,1,6,2,2,1,2185.123558
2,1,3,8,2,1,1,0,5,1,1,1,877.9362727
2,1,3,9,1,4,0,0,4,1,1,1,2263.648905
2,1,3,10,1,4,1,1,1,1,1,1,2602.149059
2,1,3,11,1,2,0,1,3,1,1,1,1542.102565
2,1,3,12,2,2,1,0,7,2,2,1,1013.079917
2,1,3,13,1,2,1,0,2,1,1,1,1193.357257
2,1,3,14,2,4,0,0,8,2,2,1,773.9025556
2,1,3,15,1,4,1,0,10,2,2,1,867.3410207
2,1,3,16,2,1,0,0,5,1,1,1,620.7282601
2,1,3,17,2,1,1,1,7,2,2,1,1016.987092
2,1,3,18,2,3,0,1,6,2,2,1,668.3139193
2,1,3,19,1,4,0,0,9,2,2,1,2269.672053
2,1,3,20,1,3,0,1,6,2,2,1,1454.648135
2,1,3,21,1,2,0,1,1,1,1,1,840.9449036
2,1,3,22,2,4,0,0,3,1,1,1,667.7365152
2,1,3,23,1,4,1,0,10,2,2,1,1589.476306
2,1,3,24,1,1,0,1,9,2,2,1,802.749995
2,1,3,25,1,1,1,1,8,2,2,1,1198.568961
2,1,3,26,2,3,0,0,7,2,1,0,562.9253385
2,1,3,27,2,3,1,1,4,1,1,1,808.1723351
2,1,3,28,1,3,1,0,2,1,1,1,924.5129977
2,1,3,29,1,2,0,1,10,2,2,1,1236.10888
2,1,3,30,1,2,1,1,8,2,2,1,790.976531
2,1,3,31,2,4,0,0,3,1,1,1,852.3381337
2,1,3,32,2,4,1,1,2,1,1,1,598.4554041
2,1,3,33,2,1,0,1,1,1,1,1,2034.575634
2,1,3,34,1,1,1,0,9,2,2,1,805.7960337
2,1,3,35,1,3,0,1,6,2,2,1,1858.218935
2,1,3,36,2,2,0,0,5,1,1,1,804.4607267
2,1,3,37,2,2,1,1,7,2,2,1,832.3854738
2,1,3,38,2,2,1,1,4,1,1,1,787.4912676
2,1,3,39,1,3,0,0,10,2,2,1,1368.554659
2,1,3,40,2,3,1,0,6,2,2,1,678.0743239
2,1,3,41,2,4,0,1,8,2,2,1,975.1479017
2,1,3,42,1,4,1,0,1,1,1,1,1028.685856
2,1,3,43,2,1,0,0,4,1,1,1,671.9065843
2,1,3,44,2,1,1,1,9,2,2,1,601.761451
2,1,3,45,1,1,1,0,5,1,1,1,1237.987607
2,1,3,46,2,2,0,0,2,1,1,1,1049.034459
2,1,3,47,2,4,0,1,7,2,2,1,594.9194857
2,1,3,48,2,3,0,1,3,1,1,1,1392.27343
2,1,4,1,2,3,99,99,2,1,1,1,1173.604332
2,1,4,2,1,3,1,0,4,1,1,1,1891.353783
2,1,4,3,1,3,1,1,3,1,1,1,2852.488817
2,1,4,4,1,2,0,1,9,2,2,1,918.4244468
2,1,4,5,2,2,1,0,1,1,1,1,1302.031045
2,1,4,6,1,1,0,0,6,2,2,1,2022.767224
2,1,4,7,1,1,1,1,10,2,2,1,1610.089727
2,1,4,8,2,1,1,0,5,1,2,0,558.8235577
2,1,4,9,1,4,0,0,2,1,1,1,2107.716471
2,1,4,10,1,4,1,1,3,1,1,1,652.0677381
2,1,4,11,1,2,0,1,1,1,1,1,909.6415574
2,1,4,12,2,2,1,0,7,2,2,1,677.959869
2,1,4,13,1,2,1,0,4,1,1,1,751.7034381
2,1,4,14,2,4,0,0,8,2,2,1,853.6657462
2,1,4,15,1,4,1,0,6,2,2,1,759.3677474
2,1,4,16,2,1,0,0,3,1,1,1,669.4914901
2,1,4,17,2,1,1,1,10,2,2,1,662.4327978
2,1,4,18,2,3,0,1,9,2,1,0,640.6491804
2,1,4,19,1,4,0,0,7,2,2,1,1146.658382
2,1,4,20,1,3,0,1,6,2,2,1,1761.993156
2,1,4,21,1,2,0,1,5,1,1,1,1007.645714
2,1,4,22,2,4,0,0,2,1,1,1,658.8968794
2,1,4,23,1,4,1,0,8,2,2,1,973.4374905
2,1,4,24,1,1,0,1,7,2,2,1,666.5339375
2,1,4,25,1,1,1,1,9,2,2,1,1203.595358
2,1,4,26,2,3,0,0,10,2,2,1,823.1902904
2,1,4,27,2,3,1,1,1,1,1,1,907.1225882
2,1,4,28,1,3,1,0,4,1,1,1,546.5877858
2,1,4,29,1,2,0,1,7,2,2,1,616.7787651
2,1,4,30,1,2,1,1,10,2,2,1,859.8023874
2,1,4,31,2,4,0,0,1,1,1,1,1013.22547
2,1,4,32,2,4,1,1,4,1,1,1,528.6600475
2,1,4,33,2,1,0,1,2,1,1,1,711.7484249
2,1,4,34,1,1,1,0,9,2,2,1,647.117324
2,1,4,35,1,3,0,1,6,2,2,1,937.3107848
2,1,4,36,2,2,0,0,3,1,1,1,639.679039
2,1,4,37,2,2,1,1,8,2,2,1,658.4733642
2,1,4,38,2,2,1,1,5,1,2,0,1020.035696
2,1,4,39,1,3,0,0,10,2,2,1,934.7193595
2,1,4,40,2,3,1,0,6,2,2,1,613.0642714
2,1,4,41,2,4,0,1,9,2,2,1,1392.964327
2,1,4,42,1,4,1,0,2,1,1,1,1116.858435
2,1,4,43,2,1,0,0,4,1,1,1,779.8494005
2,1,4,44,2,1,1,1,7,2,2,1,632.6915204
2,1,4,45,1,1,1,0,1,1,1,1,842.8925602
2,1,4,46,2,2,0,0,5,1,1,1,821.91173
2,1,4,47,2,4,0,1,8,2,2,1,1121.179507
2,1,4,48,2,3,0,1,3,1,1,1,1152.167926
2,1,5,1,2,3,99,99,4,1,1,1,922.3242484
2,1,5,2,1,3,1,0,5,1,1,1,657.9238525
2,1,5,3,1,3,1,1,3,1,1,1,852.5670435
2,1,5,4,1,2,0,1,9,2,2,1,646.6947706
2,1,5,5,2,2,1,0,1,1,1,1,776.8783825
2,1,5,6,1,1,0,0,6,2,2,1,4574.584989
2,1,5,7,1,1,1,1,7,2,2,1,2484.538492
2,1,5,8,2,1,1,0,5,1,1,1,612.9491753
2,1,5,9,1,4,0,0,2,1,1,1,1481.008665
2,1,5,10,1,4,1,1,4,1,1,1,1169.872525
2,1,5,11,1,2,0,1,3,1,1,1,959.5281766
2,1,5,12,2,2,1,0,8,2,2,1,701.1470816
2,1,5,13,1,2,1,0,1,1,1,1,981.3659757
2,1,5,14,2,4,0,0,7,2,2,1,1410.684956
2,1,5,15,1,4,1,0,6,2,2,1,1334.020704
2,1,5,16,2,1,0,0,2,1,1,1,548.8611739
2,1,5,17,2,1,1,1,8,2,1,0,498.8222689
2,1,5,18,2,3,0,1,10,2,2,1,641.7424329
2,1,5,19,1,4,0,0,9,2,2,1,877.0257633
2,1,5,20,1,3,0,1,6,2,2,1,1981.715752
2,1,5,21,1,2,0,1,4,1,1,1,1002.344882
2,1,5,22,2,4,0,0,3,1,1,1,638.2536429
2,1,5,23,1,4,1,0,7,2,2,1,1209.232501
2,1,5,24,1,1,0,1,10,2,2,1,949.9447443
2,1,5,25,1,1,1,1,8,2,2,1,659.6826747
2,1,5,26,2,3,0,0,9,2,2,1,749.2126819
2,1,5,27,2,3,1,1,5,1,1,1,635.1848414
2,1,5,28,1,3,1,0,1,1,1,1,885.9384964
2,1,5,29,1,2,0,1,8,2,2,1,1046.056067
2,1,5,30,1,2,1,1,6,2,2,1,737.0362213
2,1,5,31,2,4,0,0,5,1,1,1,679.1528287
2,1,5,32,2,4,1,1,2,1,1,1,464.0081074
2,1,5,33,2,1,0,1,4,1,1,1,626.590466
2,1,5,34,1,1,1,0,10,2,2,1,1830.261486
2,1,5,35,1,3,0,1,7,2,2,1,657.5506719
2,1,5,36,2,2,0,0,3,1,1,1,859.0476905
2,1,5,37,2,2,1,1,9,2,2,1,605.2691565
2,1,5,38,2,2,1,1,1,1,2,0,449.3232575
2,1,5,39,1,3,0,0,7,2,2,1,1115.791151
2,1,5,40,2,3,1,0,10,2,2,1,643.0835107
2,1,5,41,2,4,0,1,6,2,2,1,789.5206777
2,1,5,42,1,4,1,0,3,1,1,1,1449.534214
2,1,5,43,2,1,0,0,4,1,1,1,810.7333031
2,1,5,44,2,1,1,1,9,2,2,1,646.3443527
2,1,5,45,1,1,1,0,5,1,2,0,3560.987941
2,1,5,46,2,2,0,0,2,1,1,1,1254.048801
2,1,5,47,2,4,0,1,8,2,2,1,839.9994486
2,1,5,48,2,3,0,1,1,1,1,1,850.3170593
2,1,6,1,2,3,99,99,1,1,1,1,1085.577947
2,1,6,2,1,3,1,0,5,1,1,1,2317.632817
2,1,6,3,1,3,1,1,2,1,1,1,2381.049798
2,1,6,4,1,2,0,1,9,2,1,0,713.0763581
2,1,6,5,2,2,1,0,3,1,1,1,736.3078138
2,1,6,6,1,1,0,0,7,2,2,1,1671.074943
2,1,6,7,1,1,1,1,6,2,2,1,1119.885879
2,1,6,8,2,1,1,0,5,1,1,1,1182.828049
2,1,6,9,1,4,0,0,2,1,1,1,2227.656211
2,1,6,10,1,4,1,1,4,1,1,1,847.2979511
2,1,6,11,1,2,0,1,1,1,1,1,2313.81028
2,1,6,12,2,2,1,0,8,2,2,1,825.6243001
2,1,6,13,1,2,1,0,3,1,1,1,724.1768787
2,1,6,14,2,4,0,0,10,2,2,1,715.8014743
2,1,6,15,1,4,1,0,9,2,2,1,1219.910469
2,1,6,16,2,1,0,0,1,1,1,1,607.3165203
2,1,6,17,2,1,1,1,6,2,2,1,699.2295615
2,1,6,18,2,3,0,1,8,2,2,1,995.8613499
2,1,6,19,1,4,0,0,7,2,2,1,904.3875333
2,1,6,20,1,3,0,1,6,2,2,1,2128.92557
2,1,6,21,1,2,0,1,2,1,1,1,768.0887606
2,1,6,22,2,4,0,0,5,1,1,1,684.5835045
2,1,6,23,1,4,1,0,10,2,2,1,1756.616662
2,1,6,24,1,1,0,1,9,2,2,1,609.9444942
2,1,6,25,1,1,1,1,7,2,2,1,1142.101026
2,1,6,26,2,3,0,0,8,2,2,1,660.7900336
2,1,6,27,2,3,1,1,3,1,1,1,518.3087736
2,1,6,28,1,3,1,0,4,1,1,1,2229.004021
2,1,6,29,1,2,0,1,10,2,2,1,648.0932362
2,1,6,30,1,2,1,1,6,2,2,1,721.3222392
2,1,6,31,2,4,0,0,5,1,2,0,1064.815447
2,1,6,32,2,4,1,1,3,1,1,1,617.2375465
2,1,6,33,2,1,0,1,4,1,1,1,684.8303679
2,1,6,34,1,1,1,0,9,2,2,1,2012.924745
2,1,6,35,1,3,0,1,8,2,2,1,1841.032428
2,1,6,36,2,2,0,0,2,1,1,1,747.0803586
2,1,6,37,2,2,1,1,7,2,2,1,689.1591349
2,1,6,38,2,2,1,1,1,1,2,0,593.4116949
2,1,6,39,1,3,0,0,6,2,2,1,1142.071531
2,1,6,40,2,3,1,0,8,2,2,1,1117.10626
2,1,6,41,2,4,0,1,10,2,2,1,796.5021049
2,1,6,42,1,4,1,0,4,1,1,1,777.0665759
2,1,6,43,2,1,0,0,1,1,1,1,694.409953
2,1,6,44,2,1,1,1,7,2,2,1,951.2178544
2,1,6,45,1,1,1,0,2,1,1,1,741.2264883
2,1,6,46,2,2,0,0,3,1,1,1,1260.118116
2,1,6,47,2,4,0,1,9,2,2,1,630.450513
2,1,6,48,2,3,0,1,5,1,1,1,865.1740724
2,1,7,1,2,3,99,99,5,1,1,1,969.094617
2,1,7,2,1,3,1,0,2,1,1,1,742.4406077
2,1,7,3,1,3,1,1,1,1,1,1,1180.903475
2,1,7,4,1,2,0,1,8,2,2,1,634.4506631
2,1,7,5,2,2,1,0,4,1,1,1,581.2044565
2,1,7,6,1,1,0,0,7,2,2,1,1121.669066
2,1,7,7,1,1,1,1,9,2,2,1,593.4456786
2,1,7,8,2,1,1,0,2,1,1,1,638.7274925
2,1,7,9,1,4,0,0,1,1,1,1,609.270589
2,1,7,10,1,4,1,1,4,1,1,1,540.883316
2,1,7,11,1,2,0,1,3,1,1,1,867.6109675
2,1,7,12,2,2,1,0,6,2,2,1,765.5569673
2,1,7,13,1,2,1,0,5,1,1,1,754.4455462
2,1,7,14,2,4,0,0,10,2,2,1,976.0471901
2,1,7,15,1,4,1,0,9,2,2,1,1172.633229
2,1,7,16,2,1,0,0,4,1,1,1,601.5857612
2,1,7,17,2,1,1,1,8,2,2,1,668.7694946
2,1,7,18,2,3,0,1,7,2,2,1,909.4758063
2,1,7,19,1,4,0,0,6,2,2,1,1557.213816
2,1,7,20,1,3,0,1,10,2,2,1,859.3121871
2,1,7,21,1,2,0,1,1,1,1,1,717.5279156
2,1,7,22,2,4,0,0,3,1,1,1,612.3823511
2,1,7,23,1,4,1,0,8,2,2,1,600.0449484
2,1,7,24,1,1,0,1,9,2,2,1,683.3334776
2,1,7,25,1,1,1,1,7,2,2,1,851.8662077
2,1,7,26,2,3,0,0,6,2,2,1,709.6523296
2,1,7,27,2,3,1,1,2,1,1,1,733.1716859
2,1,7,28,1,3,1,0,5,1,1,1,995.4016068
2,1,7,29,1,2,0,1,10,2,2,1,999.5155705
2,1,7,30,1,2,1,1,9,2,2,1,531.6967888
2,1,7,31,2,4,0,0,3,1,1,1,978.5812275
2,1,7,32,2,4,1,1,1,1,1,1,488.0792194
2,1,7,33,2,1,0,1,2,1,1,1,728.2863539
2,1,7,34,1,1,1,0,6,2,2,1,1296.219494
2,1,7,35,1,3,0,1,8,2,1,0,960.2607519
2,1,7,36,2,2,0,0,4,1,1,1,677.5488573
2,1,7,37,2,2,1,1,7,2,2,1,511.5979344
2,1,7,38,2,2,1,1,5,1,1,1,615.8022117
2,1,7,39,1,3,0,0,8,2,2,1,1571.201677
2,1,7,40,2,3,1,0,7,2,2,1,535.7982491
2,1,7,41,2,4,0,1,10,2,2,1,1246.779153
2,1,7,42,1,4,1,0,3,1,1,1,1202.076987
2,1,7,43,2,1,0,0,2,1,1,1,765.7031617
2,1,7,44,2,1,1,1,6,2,2,1,578.8890695
2,1,7,45,1,1,1,0,1,1,1,1,903.1570632
2,1,7,46,2,2,0,0,4,1,1,1,927.1284681
2,1,7,47,2,4,0,1,9,2,2,1,1133.560832
2,1,7,48,2,3,0,1,5,1,1,1,844.0675662
2,1,8,1,2,3,99,99,2,1,1,1,683.8092509
2,1,8,2,1,3,1,0,1,1,1,1,603.4311458
2,1,8,3,1,3,1,1,3,1,1,1,454.9283407
2,1,8,4,1,2,0,1,10,2,2,1,1688.59199
2,1,8,5,2,2,1,0,4,1,1,1,648.7950337
2,1,8,6,1,1,0,0,9,2,2,1,818.7906704
2,1,8,7,1,1,1,1,8,2,2,1,1269.362672
2,1,8,8,2,1,1,0,1,1,1,1,598.6182699
2,1,8,9,1,4,0,0,4,1,1,1,1385.771302
2,1,8,10,1,4,1,1,5,1,1,1,1494.206563
2,1,8,11,1,2,0,1,2,1,1,1,1950.500668
2,1,8,12,2,2,1,0,7,2,2,1,604.1938577
2,1,8,13,1,2,1,0,3,1,1,1,1863.827224
2,1,8,14,2,4,0,0,10,2,2,1,705.8237016
2,1,8,15,1,4,1,0,9,2,2,1,792.9177755
2,1,8,16,2,1,0,0,5,1,1,1,596.9540254
2,1,8,17,2,1,1,1,8,2,2,1,689.3309776
2,1,8,18,2,3,0,1,6,2,2,1,857.0900952
2,1,8,19,1,4,0,0,7,2,2,1,1970.477052
2,1,8,20,1,3,0,1,10,2,2,1,1655.49369
2,1,8,21,1,2,0,1,4,1,1,1,1048.641401
2,1,8,22,2,4,0,0,3,1,1,1,569.6756118
2,1,8,23,1,4,1,0,6,2,2,1,686.3727837
2,1,8,24,1,1,0,1,8,2,2,1,710.7141632
2,1,8,25,1,1,1,1,9,2,2,1,686.2301159
2,1,8,26,2,3,0,0,7,2,2,1,1007.138202
2,1,8,27,2,3,1,1,2,1,1,1,882.218873
2,1,8,28,1,3,1,0,1,1,1,1,1457.920839
2,1,8,29,1,2,0,1,6,2,2,1,747.3339546
2,1,8,30,1,2,1,1,8,2,2,1,1506.347116
2,1,8,31,2,4,0,0,4,1,1,1,765.0234857
2,1,8,32,2,4,1,1,3,1,1,1,737.5895802
2,1,8,33,2,1,0,1,5,1,1,1,711.1976309
2,1,8,34,1,1,1,0,9,2,2,1,1326.772536
2,1,8,35,1,3,0,1,10,2,2,1,1445.401334
2,1,8,36,2,2,0,0,2,1,1,1,591.0719421
2,1,8,37,2,2,1,1,7,2,2,1,603.2031978
2,1,8,38,2,2,1,1,1,1,1,1,781.777821
2,1,8,39,1,3,0,0,9,2,2,1,1673.894637
2,1,8,40,2,3,1,0,10,2,2,1,633.6882717
2,1,8,41,2,4,0,1,7,2,2,1,723.9816321
2,1,8,42,1,4,1,0,2,1,1,1,738.9178339
2,1,8,43,2,1,0,0,5,1,1,1,1032.727364
2,1,8,44,2,1,1,1,8,2,2,1,546.3303424
2,1,8,45,1,1,1,0,4,1,1,1,928.465378
2,1,8,46,2,2,0,0,3,1,1,1,807.651357
2,1,8,47,2,4,0,1,6,2,2,1,579.2250603
2,1,8,48,2,3,0,1,1,1,1,1,680.103734
2,1,9,1,2,3,99,99,2,1,1,1,851.8383153
2,1,9,2,1,3,1,0,1,1,1,1,701.2387737
2,1,9,3,1,3,1,1,3,1,1,1,484.7972177
2,1,9,4,1,2,0,1,10,2,1,0,925.4151715
2,1,9,5,2,2,1,0,4,1,1,1,771.1392877
2,1,9,6,1,1,0,0,9,2,2,1,735.9009699
2,1,9,7,1,1,1,1,6,2,2,1,1197.856584
2,1,9,8,2,1,1,0,5,1,1,1,601.050356
2,1,9,9,1,4,0,0,4,1,1,1,716.661008
2,1,9,10,1,4,1,1,1,1,1,1,634.9562523
2,1,9,11,1,2,0,1,3,1,1,1,829.3384732
2,1,9,12,2,2,1,0,8,2,2,1,1055.377568
2,1,9,13,1,2,1,0,2,1,1,1,801.3694831
2,1,9,14,2,4,0,0,9,2,2,1,684.5777336
2,1,9,15,1,4,1,0,6,2,2,1,636.918336
2,1,9,16,2,1,0,0,1,1,1,1,702.9187277
2,1,9,17,2,1,1,1,7,2,2,1,1238.610216
2,1,9,18,2,3,0,1,8,2,2,1,1088.920864
2,1,9,19,1,4,0,0,10,2,2,1,1049.194119
2,1,9,20,1,3,0,1,6,2,2,1,506.7199763
2,1,9,21,1,2,0,1,3,1,1,1,1009.909805
2,1,9,22,2,4,0,0,4,1,1,1,653.3905415
2,1,9,23,1,4,1,0,9,2,2,1,558.6321584
2,1,9,24,1,1,0,1,7,2,2,1,1012.089257
2,1,9,25,1,1,1,1,8,2,2,1,558.6286318
2,1,9,26,2,3,0,0,10,2,2,1,892.1796537
2,1,9,27,2,3,1,1,5,1,2,0,580.4106462
2,1,9,28,1,3,1,0,2,1,1,1,1407.635391
2,1,9,29,1,2,0,1,7,2,2,1,530.6666949
2,1,9,30,1,2,1,1,10,2,2,1,1233.977519
2,1,9,31,2,4,0,0,5,1,1,1,548.1988104
2,1,9,32,2,4,1,1,2,1,1,1,481.7947808
2,1,9,33,2,1,0,1,4,1,1,1,641.5875822
2,1,9,34,1,1,1,0,6,2,2,1,635.1675289
2,1,9,35,1,3,0,1,9,2,2,1,1005.727233
2,1,9,36,2,2,0,0,3,1,1,1,753.0682404
2,1,9,37,2,2,1,1,8,2,2,1,645.9076929
2,1,9,38,2,2,1,1,1,1,1,1,1055.504206
2,1,9,39,1,3,0,0,10,2,2,1,1217.160025
2,1,9,40,2,3,1,0,7,2,2,1,596.153803
2,1,9,41,2,4,0,1,6,2,2,1,2376.40075
2,1,9,42,1,4,1,0,3,1,1,1,709.3801386
2,1,9,43,2,1,0,0,1,1,2,0,517.2879772
2,1,9,44,2,1,1,1,8,2,2,1,619.538827
2,1,9,45,1,1,1,0,5,1,1,1,573.7969493
2,1,9,46,2,2,0,0,2,1,1,1,954.0465251
2,1,9,47,2,4,0,1,9,2,2,1,1071.243515
2,1,9,48,2,3,0,1,4,1,1,1,1032.239408
2,1,10,1,2,3,99,99,1,1,1,1,899.840757
2,1,10,2,1,3,1,0,3,1,1,1,555.1978707
2,1,10,3,1,3,1,1,2,1,1,1,455.9584346
2,1,10,4,1,2,0,1,6,2,2,1,793.6455419
2,1,10,5,2,2,1,0,4,1,1,1,541.7684978
2,1,10,6,1,1,0,0,7,2,2,1,1811.446642
2,1,10,7,1,1,1,1,9,2,2,1,878.7852266
2,1,10,8,2,1,1,0,1,1,2,0,503.2597199
2,1,10,9,1,4,0,0,3,1,1,1,662.3722041
2,1,10,10,1,4,1,1,4,1,1,1,616.5726181
2,1,10,11,1,2,0,1,2,1,1,1,1354.992878
2,1,10,12,2,2,1,0,10,2,2,1,935.9764396
2,1,10,13,1,2,1,0,5,1,1,1,781.5344841
2,1,10,14,2,4,0,0,6,2,2,1,577.9051422
2,1,10,15,1,4,1,0,8,2,2,1,654.2628993
2,1,10,16,2,1,0,0,2,1,1,1,566.8555974
2,1,10,17,2,1,1,1,9,2,2,1,531.7811071
2,1,10,18,2,3,0,1,7,2,2,1,1089.343417
2,1,10,19,1,4,0,0,10,2,2,1,1097.927854
2,1,10,20,1,3,0,1,9,2,2,1,929.6326896
2,1,10,21,1,2,0,1,4,1,1,1,728.3850993
2,1,10,22,2,4,0,0,1,1,1,1,935.4589881
2,1,10,23,1,4,1,0,7,2,2,1,597.5798403
2,1,10,24,1,1,0,1,8,2,2,1,641.6164364
2,1,10,25,1,1,1,1,6,2,2,1,467.5933986
2,1,10,26,2,3,0,0,10,2,2,1,804.5546631
2,1,10,27,2,3,1,1,5,1,1,1,671.893119
2,1,10,28,1,3,1,0,3,1,1,1,760.8171886
2,1,10,29,1,2,0,1,6,2,2,1,517.3424795
2,1,10,30,1,2,1,1,10,2,2,1,644.6310561
2,1,10,31,2,4,0,0,1,1,1,1,909.8355216
2,1,10,32,2,4,1,1,3,1,1,1,668.7364726
2,1,10,33,2,1,0,1,2,1,1,1,613.835319
2,1,10,34,1,1,1,0,8,2,2,1,616.5466493
2,1,10,35,1,3,0,1,9,2,2,1,514.7199558
2,1,10,36,2,2,0,0,5,1,1,1,593.5902701
2,1,10,37,2,2,1,1,7,2,2,1,581.5266614
2,1,10,38,2,2,1,1,4,1,2,0,521.4054675
2,1,10,39,1,3,0,0,9,2,2,1,623.6912629
2,1,10,40,2,3,1,0,10,2,2,1,617.5360268
2,1,10,41,2,4,0,1,6,2,2,1,796.5540424
2,1,10,42,1,4,1,0,5,1,1,1,800.3422746
2,1,10,43,2,1,0,0,4,1,1,1,794.8407458
2,1,10,44,2,1,1,1,8,2,2,1,726.4124358
2,1,10,45,1,1,1,0,3,1,1,1,1125.834326
2,1,10,46,2,2,0,0,2,1,1,1,691.7473541
2,1,10,47,2,4,0,1,7,2,2,1,523.8959031
2,1,10,48,2,3,0,1,1,1,1,1,954.8454651
3,1,1,1,1,1,99,99,6,2,2,1,2045.064125
3,1,1,2,2,1,1,0,8,2,2,1,1046.749209
3,1,1,3,1,3,0,0,3,1,1,1,1361.647932
3,1,1,4,1,2,0,1,10,2,2,1,1823.760321
3,1,1,5,1,4,0,1,2,1,1,1,2547.812164
3,1,1,6,2,2,0,0,4,1,1,1,1177.814476
3,1,1,7,1,4,0,0,7,2,2,1,2023.050957
3,1,1,8,2,4,1,0,5,1,1,1,1018.829271
3,1,1,9,2,4,1,1,8,2,2,1,1087.565038
3,1,1,10,1,3,0,0,3,1,1,1,3272.498159
3,1,1,11,1,3,1,1,7,2,2,1,1698.653119
3,1,1,12,2,2,0,0,1,1,1,1,1202.22222
3,1,1,13,1,1,0,0,4,1,1,1,2582.730201
3,1,1,14,2,1,1,0,2,1,1,1,1163.924078
3,1,1,15,2,1,1,1,5,1,1,1,778.1508515
3,1,1,16,1,2,0,0,6,2,2,1,4264.247789
3,1,1,17,1,2,1,1,2,1,1,1,3066.710204
3,1,1,18,1,3,0,1,1,1,1,1,4612.838568
3,1,1,19,2,3,1,0,3,1,1,1,1016.690215
3,1,1,20,2,3,1,1,5,1,1,1,716.8116909
3,1,1,21,2,4,0,1,9,2,2,1,939.9159959
3,1,1,22,1,4,1,0,10,2,99,99,99000
3,1,1,23,1,4,1,1,9,2,2,1,3543.602661
3,1,1,24,2,2,0,0,6,2,2,1,974.7118831
3,1,1,25,2,2,1,1,8,2,2,1,844.2807665
3,1,1,26,1,2,1,0,4,1,1,1,4071.536225
3,1,1,27,1,1,0,1,2,1,99,99,99000
3,1,1,28,1,1,1,1,7,2,2,1,1357.764481
3,1,1,29,2,1,1,0,10,2,2,1,747.967464
3,1,1,30,2,3,0,1,6,2,2,1,1570.359776
3,1,1,31,2,3,1,1,9,2,2,1,791.9162152
3,1,1,32,1,3,1,0,5,1,1,1,4597.461859
3,1,1,33,2,4,0,0,8,2,2,1,658.192517
3,1,1,34,2,4,1,1,7,2,2,1,604.4214851
3,1,1,35,2,2,0,1,10,2,2,1,689.1921569
3,1,1,36,1,1,0,0,3,1,1,1,2089.946469
3,1,1,37,1,2,0,1,4,1,1,1,2058.892968
3,1,1,38,2,2,1,0,9,2,2,1,1421.132731
3,1,1,39,2,1,0,1,1,1,2,0,672.5586886
3,1,1,40,1,4,0,0,10,2,2,1,1842.096826
3,1,1,41,1,4,1,1,7,2,2,1,1973.231023
3,1,1,42,2,4,1,0,3,1,1,1,1026.777313
3,1,1,43,2,3,0,1,1,1,1,1,1414.427022
3,1,1,44,2,3,1,1,4,1,1,1,762.0130338
3,1,1,45,1,3,1,0,2,1,1,1,1640.485032
3,1,1,46,2,1,0,0,8,2,2,1,723.6549387
3,1,1,47,1,1,1,0,6,2,2,1,1778.853611
3,1,1,48,1,2,0,1,5,1,1,1,2369.058645
3,1,2,1,1,1,99,99,7,2,2,1,1847.951338
3,1,2,2,2,1,1,0,6,2,2,1,522.1592026
3,1,2,3,1,3,0,0,1,1,1,1,1073.999409
3,1,2,4,1,2,0,1,8,2,2,1,1643.848467
3,1,2,5,1,4,0,1,2,1,1,1,1367.003267
3,1,2,6,2,2,0,0,5,1,1,1,1228.567362
3,1,2,7,1,4,0,0,9,2,2,1,1328.302769
3,1,2,8,2,4,1,0,4,1,1,1,1231.898095
3,1,2,9,2,4,1,1,7,2,2,1,722.7149339
3,1,2,10,1,3,0,0,1,1,2,0,2962.509133
3,1,2,11,1,3,1,1,9,2,2,1,1056.315649
3,1,2,12,2,2,0,0,4,1,1,1,1771.139929
3,1,2,13,1,1,0,0,2,1,1,1,1104.373876
3,1,2,14,2,1,1,0,3,1,1,1,808.9392149
3,1,2,15,2,1,1,1,5,1,1,1,580.657189
3,1,2,16,1,2,0,0,8,2,2,1,2466.92847
3,1,2,17,1,2,1,1,2,1,1,1,1428.331847
3,1,2,18,1,3,0,1,4,1,1,1,1255.867255
3,1,2,19,2,3,1,0,5,1,1,1,1370.154463
3,1,2,20,2,3,1,1,3,1,1,1,896.1454994
3,1,2,21,2,4,0,1,10,2,2,1,872.6918666
3,1,2,22,1,4,1,0,6,2,2,1,1034.281321
3,1,2,23,1,4,1,1,8,2,2,1,1709.331087
3,1,2,24,2,2,0,0,10,2,2,1,701.5359717
3,1,2,25,2,2,1,1,6,2,2,1,605.6211774
3,1,2,26,1,2,1,0,1,1,1,1,2442.233467
3,1,2,27,1,1,0,1,5,1,1,1,2149.136635
3,1,2,28,1,1,1,1,9,2,2,1,1596.020753
3,1,2,29,2,1,1,0,7,2,2,1,1392.913992
3,1,2,30,2,3,0,1,9,2,2,1,1029.59348
3,1,2,31,2,3,1,1,10,2,2,1,801.2967065
3,1,2,32,1,3,1,0,1,1,1,1,1845.546182
3,1,2,33,2,4,0,0,8,2,2,1,608.4703666
3,1,2,34,2,4,1,1,6,2,2,1,572.5962952
3,1,2,35,2,2,0,1,7,2,2,1,882.2464448
3,1,2,36,1,1,0,0,3,1,1,1,1899.286436
3,1,2,37,1,2,0,1,2,1,1,1,2196.103212
3,1,2,38,2,2,1,0,6,2,2,1,696.9359755
3,1,2,39,2,1,0,1,4,1,1,1,833.7169335
3,1,2,40,1,4,0,0,10,2,2,1,3668.769815
3,1,2,41,1,4,1,1,8,2,2,1,1142.283128
3,1,2,42,2,4,1,0,5,1,1,1,980.9062326
3,1,2,43,2,3,0,1,4,1,1,1,706.2981925
3,1,2,44,2,3,1,1,3,1,1,1,762.4907306
3,1,2,45,1,3,1,0,2,1,1,1,1968.658598
3,1,2,46,2,1,0,0,9,2,2,1,558.7373158
3,1,2,47,1,1,1,0,7,2,2,1,3701.30065
3,1,2,48,1,2,0,1,1,1,1,1,2677.632534
3,1,3,1,1,1,99,99,10,2,2,1,1646.039781
3,1,3,2,2,1,1,0,8,2,2,1,633.067907
3,1,3,3,1,3,0,0,1,1,1,1,1211.849254
3,1,3,4,1,2,0,1,9,2,2,1,1400.299699
3,1,3,5,1,4,0,1,5,1,1,1,1020.796484
3,1,3,6,2,2,0,0,2,1,1,1,2048.181979
3,1,3,7,1,4,0,0,7,2,2,1,2730.65432
3,1,3,8,2,4,1,0,3,1,1,1,722.7338495
3,1,3,9,2,4,1,1,8,2,2,1,1882.152508
3,1,3,10,1,3,0,0,5,1,1,1,962.98683
3,1,3,11,1,3,1,1,7,2,2,1,2177.784981
3,1,3,12,2,2,0,0,1,1,1,1,1038.838357
3,1,3,13,1,1,0,0,3,1,1,1,1353.861474
3,1,3,14,2,1,1,0,2,1,1,1,656.1762515
3,1,3,15,2,1,1,1,4,1,1,1,1322.703136
3,1,3,16,1,2,0,0,6,2,2,1,2242.514827
3,1,3,17,1,2,1,1,1,1,1,1,2133.602511
3,1,3,18,1,3,0,1,2,1,1,1,1036.339906
3,1,3,19,2,3,1,0,3,1,1,1,1119.564315
3,1,3,20,2,3,1,1,5,1,1,1,535.0778566
3,1,3,21,2,4,0,1,10,2,2,1,1261.757995
3,1,3,22,1,4,1,0,9,2,2,1,1431.989915
3,1,3,23,1,4,1,1,6,2,2,1,2787.17291
3,1,3,24,2,2,0,0,8,2,2,1,672.4304478
3,1,3,25,2,2,1,1,10,2,2,1,545.8981711
3,1,3,26,1,2,1,0,4,1,1,1,1680.6074
3,1,3,27,1,1,0,1,5,1,1,1,2002.684079
3,1,3,28,1,1,1,1,7,2,2,1,782.8133651
3,1,3,29,2,1,1,0,9,2,2,1,794.2380142
3,1,3,30,2,3,0,1,8,2,2,1,511.4453279
3,1,3,31,2,3,1,1,7,2,2,1,447.6663868
3,1,3,32,1,3,1,0,2,1,1,1,1098.212869
3,1,3,33,2,4,0,0,6,2,2,1,682.4518224
3,1,3,34,2,4,1,1,9,2,2,1,691.6781041
3,1,3,35,2,2,0,1,10,2,2,1,596.6327823
3,1,3,36,1,1,0,0,4,1,2,0,1049.146991
3,1,3,37,1,2,0,1,3,1,1,1,1275.13543
3,1,3,38,2,2,1,0,8,2,2,1,813.2567608
3,1,3,39,2,1,0,1,1,1,1,1,865.2308189
3,1,3,40,1,4,0,0,10,2,2,1,1290.471102
3,1,3,41,1,4,1,1,7,2,2,1,1099.851465
3,1,3,42,2,4,1,0,4,1,1,1,1860.026488
3,1,3,43,2,3,0,1,5,1,1,1,1982.744885
3,1,3,44,2,3,1,1,3,1,1,1,731.317645
3,1,3,45,1,3,1,0,2,1,1,1,978.1035307
3,1,3,46,2,1,0,0,6,2,2,1,728.2453169
3,1,3,47,1,1,1,0,9,2,2,1,3023.701458
3,1,3,48,1,2,0,1,1,1,1,1,1347.410001
3,1,4,1,1,1,99,99,7,2,2,1,1003.843696
3,1,4,2,2,1,1,0,8,2,2,1,840.2158548
3,1,4,3,1,3,0,0,3,1,1,1,883.124894
3,1,4,4,1,2,0,1,6,2,2,1,1043.641294
3,1,4,5,1,4,0,1,5,1,1,1,1134.312644
3,1,4,6,2,2,0,0,1,1,1,1,1221.574713
3,1,4,7,1,4,0,0,10,2,2,1,1128.972057
3,1,4,8,2,4,1,0,4,1,1,1,672.3817163
3,1,4,9,2,4,1,1,6,2,2,1,833.9977808
3,1,4,10,1,3,0,0,2,1,1,1,1741.150826
3,1,4,11,1,3,1,1,9,2,2,1,1532.01162
3,1,4,12,2,2,0,0,4,1,1,1,1202.980764
3,1,4,13,1,1,0,0,3,1,1,1,1471.245696
3,1,4,14,2,1,1,0,1,1,1,1,537.2345456
3,1,4,15,2,1,1,1,5,1,1,1,520.0073225
3,1,4,16,1,2,0,0,7,2,2,1,2079.869951
3,1,4,17,1,2,1,1,4,1,1,1,1273.245803
3,1,4,18,1,3,0,1,2,1,1,1,1554.958381
3,1,4,19,2,3,1,0,5,1,1,1,833.1789635
3,1,4,20,2,3,1,1,1,1,1,1,747.9822117
3,1,4,21,2,4,0,1,10,2,2,1,626.5507114
3,1,4,22,1,4,1,0,8,2,2,1,1445.99028
3,1,4,23,1,4,1,1,9,2,2,1,1289.165611
3,1,4,24,2,2,0,0,7,2,2,1,873.798905
3,1,4,25,2,2,1,1,8,2,2,1,803.7368076
3,1,4,26,1,2,1,0,3,1,1,1,863.5659332
3,1,4,27,1,1,0,1,1,1,1,1,2362.308372
3,1,4,28,1,1,1,1,10,2,2,1,1480.678124
3,1,4,29,2,1,1,0,6,2,2,1,746.0008919
3,1,4,30,2,3,0,1,8,2,2,1,968.8496771
3,1,4,31,2,3,1,1,9,2,2,1,509.7054214
3,1,4,32,1,3,1,0,2,1,1,1,846.0290087
3,1,4,33,2,4,0,0,7,2,2,1,696.8664049
3,1,4,34,2,4,1,1,10,2,2,1,665.722494
3,1,4,35,2,2,0,1,6,2,2,1,635.3489896
3,1,4,36,1,1,0,0,3,1,1,1,1198.438797
3,1,4,37,1,2,0,1,5,1,1,1,1314.745155
3,1,4,38,2,2,1,0,7,2,2,1,1090.369664
3,1,4,39,2,1,0,1,4,1,1,1,1035.280637
3,1,4,40,1,4,0,0,8,2,2,1,2726.386788
3,1,4,41,1,4,1,1,9,2,2,1,974.2623992
3,1,4,42,2,4,1,0,3,1,1,1,715.811413
3,1,4,43,2,3,0,1,5,1,1,1,1027.431982
3,1,4,44,2,3,1,1,2,1,1,1,758.6486373
3,1,4,45,1,3,1,0,1,1,1,1,1965.005019
3,1,4,46,2,1,0,0,6,2,2,1,770.2906743
3,1,4,47,1,1,1,0,10,2,2,1,3928.529178
3,1,4,48,1,2,0,1,4,1,1,1,1072.563433
3,1,5,1,1,1,99,99,8,2,1,0,3824.635243
3,1,5,2,2,1,1,0,7,2,2,1,643.403792
3,1,5,3,1,3,0,0,5,1,1,1,2782.294952
3,1,5,4,1,2,0,1,10,2,2,1,4595.882253
3,1,5,5,1,4,0,1,1,1,1,1,1231.728176
3,1,5,6,2,2,0,0,4,1,1,1,898.9260798
3,1,5,7,1,4,0,0,9,2,2,1,1115.063705
3,1,5,8,2,4,1,0,2,1,1,1,1642.110805
3,1,5,9,2,4,1,1,8,2,2,1,629.0405058
3,1,5,10,1,3,0,0,4,1,1,1,1520.989006
3,1,5,11,1,3,1,1,6,2,2,1,1663.716167
3,1,5,12,2,2,0,0,3,1,1,1,809.9497521
3,1,5,13,1,1,0,0,1,1,1,1,3406.410371
3,1,5,14,2,1,1,0,2,1,1,1,658.8513539
3,1,5,15,2,1,1,1,5,1,1,1,845.005968
3,1,5,16,1,2,0,0,9,2,2,1,2808.167205
3,1,5,17,1,2,1,1,4,1,1,1,3460.718411
3,1,5,18,1,3,0,1,3,1,1,1,1479.227401
3,1,5,19,2,3,1,0,1,1,1,1,1041.054036
3,1,5,20,2,3,1,1,5,1,1,1,723.764264
3,1,5,21,2,4,0,1,7,2,2,1,923.1728817
3,1,5,22,1,4,1,0,10,2,2,1,2586.987153
3,1,5,23,1,4,1,1,7,2,2,1,1087.982462
3,1,5,24,2,2,0,0,8,2,2,1,920.8478766
3,1,5,25,2,2,1,1,10,2,2,1,528.2660278
3,1,5,26,1,2,1,0,2,1,1,1,2143.401387
3,1,5,27,1,1,0,1,4,1,1,1,1390.497295
3,1,5,28,1,1,1,1,9,2,2,1,1107.120472
3,1,5,29,2,1,1,0,6,2,2,1,746.3500274
3,1,5,30,2,3,0,1,8,2,2,1,929.5717752
3,1,5,31,2,3,1,1,6,2,2,1,584.1600855
3,1,5,32,1,3,1,0,5,1,1,1,1228.487532
3,1,5,33,2,4,0,0,9,2,2,1,743.5498903
3,1,5,34,2,4,1,1,7,2,2,1,549.9730213
3,1,5,35,2,2,0,1,10,2,2,1,468.1701614
3,1,5,36,1,1,0,0,1,1,1,1,1125.566624
3,1,5,37,1,2,0,1,3,1,1,1,1388.552203
3,1,5,38,2,2,1,0,9,2,2,1,528.5382188
3,1,5,39,2,1,0,1,2,1,1,1,887.9489909
3,1,5,40,1,4,0,0,6,2,2,1,1079.880851
3,1,5,41,1,4,1,1,7,2,2,1,1177.762538
3,1,5,42,2,4,1,0,5,1,1,1,638.8393826
3,1,5,43,2,3,0,1,1,1,1,1,762.0063011
3,1,5,44,2,3,1,1,4,1,1,1,471.4726817
3,1,5,45,1,3,1,0,3,1,1,1,2488.704393
3,1,5,46,2,1,0,0,10,2,2,1,745.4391973
3,1,5,47,1,1,1,0,8,2,2,1,1351.961907
3,1,5,48,1,2,0,1,2,1,1,1,2182.140999
3,1,6,1,1,1,99,99,6,2,2,1,1729.458795
3,1,6,2,2,1,1,0,7,2,2,1,648.6866703
3,1,6,3,1,3,0,0,3,1,1,1,1018.560606
3,1,6,4,1,2,0,1,10,2,2,1,1477.627277
3,1,6,5,1,4,0,1,5,1,1,1,1135.190452
3,1,6,6,2,2,0,0,1,1,2,0,573.4715384
3,1,6,7,1,4,0,0,8,2,2,1,1178.156558
3,1,6,8,2,4,1,0,2,1,1,1,1895.322514
3,1,6,9,2,4,1,1,6,2,2,1,575.7766661
3,1,6,10,1,3,0,0,3,1,1,1,948.5578204
3,1,6,11,1,3,1,1,10,2,2,1,1762.996961
3,1,6,12,2,2,0,0,4,1,1,1,728.9554501
3,1,6,13,1,1,0,0,5,1,1,1,1016.000921
3,1,6,14,2,1,1,0,2,1,1,1,619.0374056
3,1,6,15,2,1,1,1,1,1,1,1,581.7045955
3,1,6,16,1,2,0,0,9,2,2,1,1674.127394
3,1,6,17,1,2,1,1,2,1,1,1,1867.687591
3,1,6,18,1,3,0,1,1,1,1,1,884.6166547
3,1,6,19,2,3,1,0,3,1,1,1,605.1271299
3,1,6,20,2,3,1,1,5,1,1,1,488.8024974
3,1,6,21,2,4,0,1,7,2,2,1,705.3633173
3,1,6,22,1,4,1,0,8,2,2,1,2161.513792
3,1,6,23,1,4,1,1,7,2,2,1,1046.702722
3,1,6,24,2,2,0,0,10,2,2,1,816.8888598
3,1,6,25,2,2,1,1,6,2,2,1,692.7498763
3,1,6,26,1,2,1,0,4,1,1,1,1796.883621
3,1,6,27,1,1,0,1,5,1,1,1,818.0654688
3,1,6,28,1,1,1,1,9,2,2,1,1557.096475
3,1,6,29,2,1,1,0,8,2,2,1,594.4257587
3,1,6,30,2,3,0,1,10,2,2,1,662.6116937
3,1,6,31,2,3,1,1,6,2,2,1,504.7768082
3,1,6,32,1,3,1,0,2,1,1,1,1104.410745
3,1,6,33,2,4,0,0,7,2,2,1,879.9714536
3,1,6,34,2,4,1,1,8,2,2,1,521.087751
3,1,6,35,2,2,0,1,9,2,2,1,647.6508055
3,1,6,36,1,1,0,0,3,1,1,1,1169.37944
3,1,6,37,1,2,0,1,1,1,1,1,1175.358024
3,1,6,38,2,2,1,0,8,2,2,1,988.7689945
3,1,6,39,2,1,0,1,4,1,1,1,1042.025781
3,1,6,40,1,4,0,0,7,2,2,1,1404.805438
3,1,6,41,1,4,1,1,10,2,2,1,2313.294431
3,1,6,42,2,4,1,0,2,1,1,1,1177.467264
3,1,6,43,2,3,0,1,3,1,1,1,1246.253045
3,1,6,44,2,3,1,1,5,1,1,1,585.4642941
3,1,6,45,1,3,1,0,4,1,1,1,2309.364814
3,1,6,46,2,1,0,0,6,2,2,1,717.0768287
3,1,6,47,1,1,1,0,9,2,2,1,3100.123977
3,1,6,48,1,2,0,1,1,1,1,1,1956.195199
3,1,7,1,1,1,99,99,6,2,2,1,1079.931507
3,1,7,2,2,1,1,0,8,2,2,1,641.4417083
3,1,7,3,1,3,0,0,1,1,1,1,971.7623455
3,1,7,4,1,2,0,1,10,2,2,1,1345.08179
3,1,7,5,1,4,0,1,2,1,1,1,1239.102661
3,1,7,6,2,2,0,0,3,1,1,1,649.60263
3,1,7,7,1,4,0,0,7,2,2,1,946.9054381
3,1,7,8,2,4,1,0,5,1,1,1,665.5368655
3,1,7,9,2,4,1,1,6,2,2,1,586.0157294
3,1,7,10,1,3,0,0,3,1,1,1,2294.45971
3,1,7,11,1,3,1,1,10,2,99,99,99000
3,1,7,12,2,2,0,0,4,1,1,1,1058.841992
3,1,7,13,1,1,0,0,5,1,1,1,1500.523703
3,1,7,14,2,1,1,0,2,1,1,1,515.7987813
3,1,7,15,2,1,1,1,1,1,1,1,498.6000918
3,1,7,16,1,2,0,0,8,2,2,1,994.6671078
3,1,7,17,1,2,1,1,4,1,1,1,1575.50159
3,1,7,18,1,3,0,1,1,1,1,1,1348.371487
3,1,7,19,2,3,1,0,5,1,1,1,498.4708892
3,1,7,20,2,3,1,1,3,1,1,1,506.0098431
3,1,7,21,2,4,0,1,9,2,2,1,650.480438
3,1,7,22,1,4,1,0,7,2,2,1,1052.499525
3,1,7,23,1,4,1,1,8,2,2,1,1614.779812
3,1,7,24,2,2,0,0,6,2,2,1,657.4358965
3,1,7,25,2,2,1,1,7,2,2,1,803.5668886
3,1,7,26,1,2,1,0,2,1,1,1,1279.595003
3,1,7,27,1,1,0,1,1,1,1,1,1832.790394
3,1,7,28,1,1,1,1,9,2,2,1,1475.020142
3,1,7,29,2,1,1,0,10,2,2,1,1084.737329
3,1,7,30,2,3,0,1,6,2,2,1,812.8374135
3,1,7,31,2,3,1,1,7,2,2,1,744.8204357
3,1,7,32,1,3,1,0,5,1,2,0,527.2118887
3,1,7,33,2,4,0,0,9,2,2,1,1294.301013
3,1,7,34,2,4,1,1,10,2,2,1,614.4386918
3,1,7,35,2,2,0,1,8,2,2,1,673.7603045
3,1,7,36,1,1,0,0,2,1,1,1,699.3821681
3,1,7,37,1,2,0,1,4,1,1,1,827.1952495
3,1,7,38,2,2,1,0,10,2,2,1,606.7522609
3,1,7,39,2,1,0,1,3,1,1,1,650.7356371
3,1,7,40,1,4,0,0,6,2,2,1,725.115601
3,1,7,41,1,4,1,1,8,2,2,1,1251.904616
3,1,7,42,2,4,1,0,1,1,1,1,662.126623
3,1,7,43,2,3,0,1,4,1,1,1,688.5320376
3,1,7,44,2,3,1,1,2,1,1,1,537.0954044
3,1,7,45,1,3,1,0,5,1,1,1,791.1519002
3,1,7,46,2,1,0,0,7,2,2,1,587.6091208
3,1,7,47,1,1,1,0,9,2,2,1,1215.96963
3,1,7,48,1,2,0,1,3,1,1,1,1034.982157
3,1,8,1,1,1,99,99,9,2,2,1,1145.167583
3,1,8,2,2,1,1,0,10,2,2,1,655.7517746
3,1,8,3,1,3,0,0,5,1,1,1,857.0400813
3,1,8,4,1,2,0,1,6,2,2,1,1779.704488
3,1,8,5,1,4,0,1,3,1,1,1,1865.09809
3,1,8,6,2,2,0,0,4,1,1,1,746.7963053
3,1,8,7,1,4,0,0,8,2,2,1,2433.115869
3,1,8,8,2,4,1,0,2,1,1,1,1339.837705
3,1,8,9,2,4,1,1,10,2,2,1,2377.073052
3,1,8,10,1,3,0,0,1,1,1,1,1279.153534
3,1,8,11,1,3,1,1,7,2,2,1,1472.080543
3,1,8,12,2,2,0,0,3,1,1,1,696.2457196
3,1,8,13,1,1,0,0,5,1,1,1,1304.786619
3,1,8,14,2,1,1,0,4,1,1,1,647.8428461
3,1,8,15,2,1,1,1,2,1,1,1,738.0127747
3,1,8,16,1,2,0,0,6,2,2,1,1504.120536
3,1,8,17,1,2,1,1,3,1,1,1,1151.965306
3,1,8,18,1,3,0,1,1,1,1,1,2341.84852
3,1,8,19,2,3,1,0,5,1,1,1,860.5410542
3,1,8,20,2,3,1,1,4,1,1,1,2110.120344
3,1,8,21,2,4,0,1,8,2,2,1,741.8587152
3,1,8,22,1,4,1,0,9,2,2,1,1652.090501
3,1,8,23,1,4,1,1,10,2,2,1,1149.528411
3,1,8,24,2,2,0,0,8,2,2,1,755.3858717
3,1,8,25,2,2,1,1,6,2,2,1,1448.741686
3,1,8,26,1,2,1,0,2,1,1,1,2050.38259
3,1,8,27,1,1,0,1,3,1,1,1,1445.131387
3,1,8,28,1,1,1,1,9,2,2,1,4343.551237
3,1,8,29,2,1,1,0,7,2,2,1,645.7416211
3,1,8,30,2,3,0,1,9,2,2,1,719.666651
3,1,8,31,2,3,1,1,10,2,2,1,733.4926084
3,1,8,32,1,3,1,0,5,1,1,1,1348.20285
3,1,8,33,2,4,0,0,6,2,2,1,745.6626569
3,1,8,34,2,4,1,1,7,2,2,1,687.8324842
3,1,8,35,2,2,0,1,8,2,2,1,656.3891312
3,1,8,36,1,1,0,0,4,1,1,1,1657.531756
3,1,8,37,1,2,0,1,2,1,1,1,1114.514194
3,1,8,38,2,2,1,0,9,2,2,1,625.7761371
3,1,8,39,2,1,0,1,1,1,1,1,644.3264843
3,1,8,40,1,4,0,0,10,2,2,1,1494.646429
3,1,8,41,1,4,1,1,6,2,2,1,1462.841437
3,1,8,42,2,4,1,0,3,1,1,1,720.8836558
3,1,8,43,2,3,0,1,1,1,1,1,711.4435325
3,1,8,44,2,3,1,1,4,1,1,1,614.9731352
3,1,8,45,1,3,1,0,2,1,1,1,1105.145244
3,1,8,46,2,1,0,0,7,2,2,1,1049.164303
3,1,8,47,1,1,1,0,8,2,2,1,1194.540919
3,1,8,48,1,2,0,1,5,1,1,1,1383.412634
3,1,9,1,1,1,99,99,7,2,2,1,964.6100375
3,1,9,2,2,1,1,0,10,2,2,1,649.1714204
3,1,9,3,1,3,0,0,2,1,1,1,866.479884
3,1,9,4,1,2,0,1,8,2,2,1,1003.753607
3,1,9,5,1,4,0,1,3,1,1,1,830.4201841
3,1,9,6,2,2,0,0,4,1,1,1,649.3721172
3,1,9,7,1,4,0,0,6,2,2,1,962.8188346
3,1,9,8,2,4,1,0,1,1,1,1,648.0025058
3,1,9,9,2,4,1,1,9,2,2,1,633.3519603
3,1,9,10,1,3,0,0,3,1,1,1,707.4616568
3,1,9,11,1,3,1,1,10,2,2,1,1075.062525
3,1,9,12,2,2,0,0,2,1,1,1,836.0438622
3,1,9,13,1,1,0,0,5,1,1,1,967.1116942
3,1,9,14,2,1,1,0,4,1,1,1,700.417071
3,1,9,15,2,1,1,1,1,1,1,1,739.3971338
3,1,9,16,1,2,0,0,6,2,2,1,1385.40774
3,1,9,17,1,2,1,1,4,1,1,1,789.1923813
3,1,9,18,1,3,0,1,5,1,1,1,1569.655093
3,1,9,19,2,3,1,0,3,1,1,1,926.5818418
3,1,9,20,2,3,1,1,1,1,1,1,669.6072274
3,1,9,21,2,4,0,1,8,2,2,1,734.3210437
3,1,9,22,1,4,1,0,7,2,2,1,916.6354881
3,1,9,23,1,4,1,1,8,2,2,1,1043.597371
3,1,9,24,2,2,0,0,7,2,2,1,565.1044697
3,1,9,25,2,2,1,1,10,2,2,1,546.358876
3,1,9,26,1,2,1,0,2,1,1,1,776.7180816
3,1,9,27,1,1,0,1,1,1,1,1,1172.585779
3,1,9,28,1,1,1,1,9,2,2,1,777.7789533
3,1,9,29,2,1,1,0,6,2,2,1,541.5988994
3,1,9,30,2,3,0,1,9,2,2,1,1228.49202
3,1,9,31,2,3,1,1,10,2,2,1,631.6357783
3,1,9,32,1,3,1,0,5,1,1,1,682.1318617
3,1,9,33,2,4,0,0,7,2,2,1,625.357431
3,1,9,34,2,4,1,1,8,2,2,1,603.9274375
3,1,9,35,2,2,0,1,6,2,2,1,791.5943309
3,1,9,36,1,1,0,0,4,1,1,1,1194.971808
3,1,9,37,1,2,0,1,2,1,1,1,1199.021651
3,1,9,38,2,2,1,0,10,2,2,1,890.9568781
3,1,9,39,2,1,0,1,3,1,1,1,691.2010485
3,1,9,40,1,4,0,0,6,2,2,1,1147.157559
3,1,9,41,1,4,1,1,9,2,2,1,3778.409898
3,1,9,42,2,4,1,0,5,1,1,1,1015.73418
3,1,9,43,2,3,0,1,4,1,1,1,642.6269736
3,1,9,44,2,3,1,1,1,1,1,1,572.8896459
3,1,9,45,1,3,1,0,2,1,1,1,1305.13351
3,1,9,46,2,1,0,0,8,2,2,1,791.686023
3,1,9,47,1,1,1,0,7,2,2,1,1003.362473
3,1,9,48,1,2,0,1,3,1,1,1,1047.273072
3,1,10,1,1,1,99,99,8,2,2,1,1363.625725
3,1,10,2,2,1,1,0,7,2,2,1,576.1671593
3,1,10,3,1,3,0,0,3,1,1,1,756.7198962
3,1,10,4,1,2,0,1,9,2,2,1,2321.489978
3,1,10,5,1,4,0,1,5,1,1,1,1328.699353
3,1,10,6,2,2,0,0,2,1,1,1,1119.419403
3,1,10,7,1,4,0,0,6,2,2,1,1486.427799
3,1,10,8,2,4,1,0,1,1,1,1,693.967843
3,1,10,9,2,4,1,1,9,2,2,1,678.2192359
3,1,10,10,1,3,0,0,3,1,1,1,1070.408668
3,1,10,11,1,3,1,1,7,2,2,1,1103.127055
3,1,10,12,2,2,0,0,1,1,1,1,662.3568152
3,1,10,13,1,1,0,0,5,1,1,1,1024.111829
3,1,10,14,2,1,1,0,4,1,1,1,1002.811038
3,1,10,15,2,1,1,1,2,1,1,1,558.8825485
3,1,10,16,1,2,0,0,8,2,2,1,2828.279525
3,1,10,17,1,2,1,1,4,1,1,1,1246.589677
3,1,10,18,1,3,0,1,1,1,1,1,1168.874492
3,1,10,19,2,3,1,0,5,1,1,1,501.4656316
3,1,10,20,2,3,1,1,2,1,1,1,483.9642939
3,1,10,21,2,4,0,1,10,2,2,1,539.8554662
3,1,10,22,1,4,1,0,6,2,2,1,1033.244815
3,1,10,23,1,4,1,1,7,2,2,1,1611.493963
3,1,10,24,2,2,0,0,10,2,2,1,655.4625917
3,1,10,25,2,2,1,1,6,2,2,1,487.9407194
3,1,10,26,1,2,1,0,3,1,1,1,968.0789501
3,1,10,27,1,1,0,1,4,1,1,1,2044.521987
3,1,10,28,1,1,1,1,8,2,2,1,1151.084933
3,1,10,29,2,1,1,0,9,2,2,1,668.463961
3,1,10,30,2,3,0,1,7,2,2,1,613.7904347
3,1,10,31,2,3,1,1,8,2,2,1,664.2323363
3,1,10,32,1,3,1,0,3,1,1,1,2025.239385
3,1,10,33,2,4,0,0,10,2,2,1,547.4886772
3,1,10,34,2,4,1,1,9,2,2,1,1354.556218
3,1,10,35,2,2,0,1,6,2,2,1,1112.363596
3,1,10,36,1,1,0,0,1,1,1,1,2096.197886
3,1,10,37,1,2,0,1,5,1,1,1,1593.286019
3,1,10,38,2,2,1,0,7,2,2,1,749.7891241
3,1,10,39,2,1,0,1,2,1,1,1,747.6789223
3,1,10,40,1,4,0,0,10,2,2,1,1297.00561
3,1,10,41,1,4,1,1,9,2,2,1,1049.46086
3,1,10,42,2,4,1,0,1,1,1,1,610.9200858
3,1,10,43,2,3,0,1,5,1,1,1,838.6747215
3,1,10,44,2,3,1,1,3,1,1,1,671.9732695
3,1,10,45,1,3,1,0,2,1,1,1,1065.113607
3,1,10,46,2,1,0,0,8,2,2,1,841.8259177
3,1,10,47,1,1,1,0,6,2,2,1,939.4867099
3,1,10,48,1,2,0,1,4,1,1,1,914.200196
4,2,1,1,1,1,99,99,10,2,2,1,2330.427398
4,2,1,2,2,3,0,0,1,1,1,1,1129.160892
4,2,1,3,1,3,1,0,3,1,1,1,2032.885741
4,2,1,4,1,4,0,1,2,1,2,0,2564.107398
4,2,1,5,2,2,0,0,4,1,1,1,1633.411272
4,2,1,6,2,2,1,1,8,2,2,1,1284.388001
4,2,1,7,1,1,0,0,6,2,2,1,1509.761206
4,2,1,8,1,4,0,1,7,2,2,1,1717.784718
4,2,1,9,1,1,0,1,8,2,2,1,2054.375046
4,2,1,10,2,4,0,0,2,1,1,1,960.5964221
4,2,1,11,2,3,0,1,3,1,1,1,838.9699958
4,2,1,12,2,3,1,1,4,1,1,1,753.6180727
4,2,1,13,1,3,1,0,9,2,2,1,2416.374037
4,2,1,14,2,2,0,0,5,1,1,1,811.74897
4,2,1,15,2,2,1,1,1,1,1,1,751.7063235
4,2,1,16,1,2,1,0,7,2,2,1,2078.370175
4,2,1,17,1,4,0,1,10,2,2,1,2208.090838
4,2,1,18,2,1,0,0,2,1,1,1,820.3359715
4,2,1,19,2,4,0,1,3,1,1,1,1448.215578
4,2,1,20,1,4,1,0,4,1,1,1,1514.291311
4,2,1,21,1,4,1,1,6,2,2,1,1626.907862
4,2,1,22,2,1,0,0,8,2,2,1,1230.22295
4,2,1,23,2,1,1,1,7,2,1,0,746.1829938
4,2,1,24,2,3,0,1,6,2,2,1,1888.836738
4,2,1,25,1,3,1,0,10,2,2,1,1257.686671
4,2,1,26,2,3,1,0,9,2,2,1,995.8959749
4,2,1,27,2,2,0,1,5,1,1,1,984.838415
4,2,1,28,1,2,1,0,7,2,2,1,2109.908106
4,2,1,29,2,1,0,0,6,2,2,1,1198.505803
4,2,1,30,2,1,1,1,1,1,1,1,1090.587673
4,2,1,31,1,1,1,0,4,1,1,1,971.3298535
4,2,1,32,1,2,0,1,5,1,2,0,2433.506042
4,2,1,33,2,4,0,0,2,1,1,1,1116.122653
4,2,1,34,2,4,1,1,8,2,2,1,1467.527034
4,2,1,35,1,2,0,0,3,1,1,1,2453.615155
4,2,1,36,2,2,1,0,9,2,2,1,1063.561894
4,2,1,37,2,3,0,1,1,1,1,1,1233.986175
4,2,1,38,1,3,1,0,10,2,2,1,2125.217488
4,2,1,39,1,3,1,1,8,2,2,1,1060.838701
4,2,1,40,1,4,0,1,5,1,1,1,1046.996393
4,2,1,41,2,4,1,0,2,1,1,1,1049.877322
4,2,1,42,2,4,1,1,1,1,1,1,820.0458268
4,2,1,43,1,1,0,0,7,2,2,1,2024.012442
4,2,1,44,1,1,1,1,3,1,1,1,979.6725565
4,2,1,45,2,1,1,0,10,2,2,1,985.1760089
4,2,1,46,1,2,0,0,9,2,2,1,2190.000875
4,2,1,47,1,2,1,1,4,1,1,1,1123.249634
4,2,1,48,1,3,0,1,6,2,2,1,1466.9336
4,2,2,1,1,1,99,99,7,2,2,1,1113.692811
4,2,2,2,2,3,0,0,1,1,1,1,1402.257294
4,2,2,3,1,3,1,0,4,1,1,1,750.2360432
4,2,2,4,1,4,0,1,3,1,1,1,1228.839553
4,2,2,5,2,2,0,0,2,1,1,1,808.1402749
4,2,2,6,2,2,1,1,6,2,2,1,772.4547174
4,2,2,7,1,1,0,0,9,2,2,1,1890.038674
4,2,2,8,1,4,0,1,8,2,2,1,1195.104216
4,2,2,9,1,1,0,1,10,2,2,1,1400.045141
4,2,2,10,2,4,0,0,5,1,1,1,828.156414
4,2,2,11,2,3,0,1,4,1,1,1,1143.942884
4,2,2,12,2,3,1,1,3,1,1,1,830.7718844
4,2,2,13,1,3,1,0,7,2,2,1,1234.543061
4,2,2,14,2,2,0,0,2,1,1,1,645.2026893
4,2,2,15,2,2,1,1,1,1,1,1,752.3151465
4,2,2,16,1,2,1,0,6,2,2,1,878.7313654
4,2,2,17,1,4,0,1,9,2,2,1,728.206524
4,2,2,18,2,1,0,0,5,1,1,1,679.887007
4,2,2,19,2,4,0,1,1,1,1,1,1017.253512
4,2,2,20,1,4,1,0,2,1,1,1,701.0553895
4,2,2,21,1,4,1,1,8,2,2,1,1693.422179
4,2,2,22,2,1,0,0,10,2,2,1,758.1565134
4,2,2,23,2,1,1,1,7,2,2,1,1028.605385
4,2,2,24,2,3,0,1,6,2,2,1,1176.226855
4,2,2,25,1,3,1,0,8,2,2,1,1069.655254
4,2,2,26,2,3,1,0,9,2,2,1,1183.525999
4,2,2,27,2,2,0,1,4,1,1,1,852.2422737
4,2,2,28,1,2,1,0,8,2,1,0,1662.739614
4,2,2,29,2,1,0,0,7,2,2,1,752.020834
4,2,2,30,2,1,1,1,3,1,1,1,734.0847601
4,2,2,31,1,1,1,0,4,1,2,0,1437.124996
4,2,2,32,1,2,0,1,5,1,1,1,1647.779687
4,2,2,33,2,4,0,0,3,1,1,1,858.8046742
4,2,2,34,2,4,1,1,10,2,2,1,1125.181581
4,2,2,35,1,2,0,0,2,1,2,0,1156.405642
4,2,2,36,2,2,1,0,6,2,2,1,738.7793339
4,2,2,37,2,3,0,1,1,1,1,1,1193.748391
4,2,2,38,1,3,1,0,9,2,2,1,1662.456202
4,2,2,39,1,3,1,1,10,2,2,1,2672.880573
4,2,2,40,1,4,0,1,5,1,1,1,754.5372384
4,2,2,41,2,4,1,0,4,1,1,1,1152.799512
4,2,2,42,2,4,1,1,1,1,1,1,823.1726573
4,2,2,43,1,1,0,0,8,2,2,1,2138.717073
4,2,2,44,1,1,1,1,2,1,1,1,1025.877704
4,2,2,45,2,1,1,0,9,2,2,1,957.3564192
4,2,2,46,1,2,0,0,6,2,1,0,1483.888632
4,2,2,47,1,2,1,1,3,1,2,0,1900.192457
4,2,2,48,1,3,0,1,7,2,2,1,1483.502307
4,2,3,1,1,1,99,99,10,2,2,1,1635.011716
4,2,3,2,2,3,0,0,5,1,1,1,853.8398331
4,2,3,3,1,3,1,0,1,1,1,1,1352.365545
4,2,3,4,1,4,0,1,2,1,1,1,894.763064
4,2,3,5,2,2,0,0,3,1,1,1,1599.851946
4,2,3,6,2,2,1,1,9,2,2,1,1243.723496
4,2,3,7,1,1,0,0,8,2,1,0,1422.866547
4,2,3,8,1,4,0,1,6,2,2,1,1282.37911
4,2,3,9,1,1,0,1,8,2,2,1,1355.375997
4,2,3,10,2,4,0,0,5,1,1,1,689.4342114
4,2,3,11,2,3,0,1,2,1,1,1,1538.611531
4,2,3,12,2,3,1,1,3,1,1,1,705.34344
4,2,3,13,1,3,1,0,9,2,2,1,1425.573709
4,2,3,14,2,2,0,0,1,1,1,1,861.2181654
4,2,3,15,2,2,1,1,4,1,1,1,623.7130639
4,2,3,16,1,2,1,0,7,2,2,1,2603.45455
4,2,3,17,1,4,0,1,10,2,2,1,1967.992708
4,2,3,18,2,1,0,0,2,1,1,1,773.1837661
4,2,3,19,2,4,0,1,1,1,1,1,1066.954182
4,2,3,20,1,4,1,0,5,1,1,1,716.3314293
4,2,3,21,1,4,1,1,6,2,2,1,1004.253746
4,2,3,22,2,1,0,0,10,2,2,1,976.2427572
4,2,3,23,2,1,1,1,7,2,2,1,1638.075709
4,2,3,24,2,3,0,1,6,2,2,1,1281.069772
4,2,3,25,1,3,1,0,9,2,2,1,938.3963428
4,2,3,26,2,3,1,0,8,2,2,1,1553.715728
4,2,3,27,2,2,0,1,3,1,1,1,647.973331
4,2,3,28,1,2,1,0,10,2,2,1,1458.974016
4,2,3,29,2,1,0,0,7,2,2,1,1117.360177
4,2,3,30,2,1,1,1,4,1,1,1,684.7040508
4,2,3,31,1,1,1,0,2,1,2,0,1573.771622
4,2,3,32,1,2,0,1,1,1,2,0,1802.887213
4,2,3,33,2,4,0,0,4,1,1,1,1078.261812
4,2,3,34,2,4,1,1,9,2,2,1,984.0686499
4,2,3,35,1,2,0,0,3,1,2,0,1868.964549
4,2,3,36,2,2,1,0,6,2,2,1,1317.662633
4,2,3,37,2,3,0,1,5,1,1,1,1029.751216
4,2,3,38,1,3,1,0,8,2,2,1,1241.005113
4,2,3,39,1,3,1,1,10,2,2,1,1539.927602
4,2,3,40,1,4,0,1,3,1,1,1,730.8114146
4,2,3,41,2,4,1,0,5,1,1,1,874.3904156
4,2,3,42,2,4,1,1,1,1,1,1,955.9813576
4,2,3,43,1,1,0,0,7,2,2,1,1722.624845
4,2,3,44,1,1,1,1,4,1,1,1,666.0796446
4,2,3,45,2,1,1,0,6,2,2,1,731.7055733
4,2,3,46,1,2,0,0,9,2,2,1,1210.708553
4,2,3,47,1,2,1,1,2,1,1,1,1831.094089
4,2,3,48,1,3,0,1,8,2,2,1,1194.809583
4,2,4,1,1,1,99,99,6,2,2,1,899.040214
4,2,4,2,2,3,0,0,2,1,1,1,1043.527801
4,2,4,3,1,3,1,0,3,1,1,1,1230.586512
4,2,4,4,1,4,0,1,1,1,1,1,865.9207543
4,2,4,5,2,2,0,0,5,1,1,1,1051.832673
4,2,4,6,2,2,1,1,9,2,2,1,1453.991862
4,2,4,7,1,1,0,0,7,2,2,1,1544.310871
4,2,4,8,1,4,0,1,8,2,2,1,2359.417505
4,2,4,9,1,1,0,1,10,2,1,0,1925.908578
4,2,4,10,2,4,0,0,3,1,1,1,2685.340766
4,2,4,11,2,3,0,1,4,1,1,1,1206.303162
4,2,4,12,2,3,1,1,1,1,1,1,946.6056754
4,2,4,13,1,3,1,0,9,2,2,1,681.623387
4,2,4,14,2,2,0,0,2,1,1,1,874.1993368
4,2,4,15,2,2,1,1,5,1,1,1,1227.765857
4,2,4,16,1,2,1,0,6,2,1,0,2231.719199
4,2,4,17,1,4,0,1,7,2,2,1,1082.42098
4,2,4,18,2,1,0,0,1,1,1,1,1011.54744
4,2,4,19,2,4,0,1,4,1,1,1,1311.497778
4,2,4,20,1,4,1,0,3,1,2,0,2560.190284
4,2,4,21,1,4,1,1,8,2,2,1,1005.443179
4,2,4,22,2,1,0,0,10,2,2,1,1241.634775
4,2,4,23,2,1,1,1,9,2,2,1,668.5258371
4,2,4,24,2,3,0,1,6,2,2,1,1126.421028
4,2,4,25,1,3,1,0,7,2,2,1,1470.207266
4,2,4,26,2,3,1,0,8,2,2,1,1727.796474
4,2,4,27,2,2,0,1,5,1,1,1,1143.356503
4,2,4,28,1,2,1,0,7,2,2,1,782.2680213
4,2,4,29,2,1,0,0,8,2,2,1,1235.401312
4,2,4,30,2,1,1,1,2,1,1,1,958.3406671
4,2,4,31,1,1,1,0,3,1,1,1,2092.629586
4,2,4,32,1,2,0,1,4,1,1,1,901.1667665
4,2,4,33,2,4,0,0,1,1,1,1,1629.629452
4,2,4,34,2,4,1,1,10,2,2,1,1513.530523
4,2,4,35,1,2,0,0,2,1,1,1,985.8579291
4,2,4,36,2,2,1,0,6,2,2,1,886.4610775
4,2,4,37,2,3,0,1,5,1,1,1,1223.473318
4,2,4,38,1,3,1,0,9,2,2,1,795.1667979
4,2,4,39,1,3,1,1,8,2,2,1,1248.062522
4,2,4,40,1,4,0,1,4,1,1,1,1578.768203
4,2,4,41,2,4,1,0,3,1,1,1,1672.191599
4,2,4,42,2,4,1,1,2,1,1,1,1361.840293
4,2,4,43,1,1,0,0,7,2,2,1,720.1606985
4,2,4,44,1,1,1,1,1,1,1,1,783.5039416
4,2,4,45,2,1,1,0,6,2,2,1,756.4201334
4,2,4,46,1,2,0,0,10,2,2,1,810.8538495
4,2,4,47,1,2,1,1,5,1,1,1,886.9352477
4,2,4,48,1,3,0,1,9,2,2,1,1375.961525
4,2,5,1,1,1,99,99,6,2,2,1,1560.717033
4,2,5,2,2,3,0,0,2,1,1,1,894.2593983
4,2,5,3,1,3,1,0,5,1,1,1,727.0010609
4,2,5,4,1,4,0,1,3,1,1,1,1239.004236
4,2,5,5,2,2,0,0,1,1,1,1,1953.652505
4,2,5,6,2,2,1,1,8,2,2,1,1600.045269
4,2,5,7,1,1,0,0,10,2,2,1,868.2909642
4,2,5,8,1,4,0,1,7,2,2,1,573.9931577
4,2,5,9,1,1,0,1,8,2,2,1,835.678376
4,2,5,10,2,4,0,0,2,1,1,1,550.289776
4,2,5,11,2,3,0,1,1,1,2,0,2229.011395
4,2,5,12,2,3,1,1,3,1,1,1,735.4726458
4,2,5,13,1,3,1,0,9,2,2,1,862.2049781
4,2,5,14,2,2,0,0,4,1,1,1,1336.778842
4,2,5,15,2,2,1,1,5,1,1,1,1583.714128
4,2,5,16,1,2,1,0,7,2,2,1,2260.646148
4,2,5,17,1,4,0,1,6,2,2,1,1455.042154
4,2,5,18,2,1,0,0,2,1,1,1,537.4031822
4,2,5,19,2,4,0,1,3,1,1,1,1000.313549
4,2,5,20,1,4,1,0,4,1,1,1,852.5994243
4,2,5,21,1,4,1,1,10,2,2,1,886.9525602
4,2,5,22,2,1,0,0,9,2,2,1,671.1698411
4,2,5,23,2,1,1,1,10,2,2,1,1288.518316
4,2,5,24,2,3,0,1,6,2,2,1,1361.671657
4,2,5,25,1,3,1,0,8,2,2,1,1039.658456
4,2,5,26,2,3,1,0,7,2,2,1,954.8807313
4,2,5,27,2,2,0,1,1,1,2,0,2048.695904
4,2,5,28,1,2,1,0,9,2,2,1,2322.022177
4,2,5,29,2,1,0,0,6,2,2,1,1097.080503
4,2,5,30,2,1,1,1,5,1,2,0,921.3499392
4,2,5,31,1,1,1,0,2,1,1,1,839.8593455
4,2,5,32,1,2,0,1,5,1,1,1,994.2047998
4,2,5,33,2,4,0,0,3,1,1,1,671.2192138
4,2,5,34,2,4,1,1,8,2,2,1,872.683531
4,2,5,35,1,2,0,0,1,1,1,1,1529.547153
4,2,5,36,2,2,1,0,7,2,2,1,1057.229044
4,2,5,37,2,3,0,1,4,1,1,1,803.5438053
4,2,5,38,1,3,1,0,10,2,2,1,1079.021318
4,2,5,39,1,3,1,1,7,2,2,1,912.191625
4,2,5,40,1,4,0,1,5,1,1,1,759.7511873
4,2,5,41,2,4,1,0,2,1,1,1,909.9884487
4,2,5,42,2,4,1,1,3,1,1,1,661.5771113
4,2,5,43,1,1,0,0,8,2,2,1,1366.936261
4,2,5,44,1,1,1,1,1,1,1,1,892.6294582
4,2,5,45,2,1,1,0,10,2,2,1,620.8237995
4,2,5,46,1,2,0,0,9,2,2,1,984.5883455
4,2,5,47,1,2,1,1,4,1,1,1,604.8530152
4,2,5,48,1,3,0,1,6,2,2,1,1049.154044
4,2,6,1,1,1,99,99,10,2,2,1,1095.194722
4,2,6,2,2,3,0,0,3,1,1,1,672.0514964
4,2,6,3,1,3,1,0,4,1,1,1,1089.835861
4,2,6,4,1,4,0,1,5,1,1,1,738.0188661
4,2,6,5,2,2,0,0,2,1,2,0,816.2515032
4,2,6,6,2,2,1,1,8,2,2,1,810.8339721
4,2,6,7,1,1,0,0,7,2,2,1,718.9263811
4,2,6,8,1,4,0,1,9,2,2,1,1501.925054
4,2,6,9,1,1,0,1,10,2,2,1,1741.625958
4,2,6,10,2,4,0,0,5,1,1,1,1316.221206
4,2,6,11,2,3,0,1,4,1,1,1,1259.180997
4,2,6,12,2,3,1,1,3,1,1,1,668.4646022
4,2,6,13,1,3,1,0,6,2,2,1,645.950333
4,2,6,14,2,2,0,0,1,1,1,1,904.5103239
4,2,6,15,2,2,1,1,2,1,1,1,1000.422553
4,2,6,16,1,2,1,0,7,2,2,1,956.4289179
4,2,6,17,1,4,0,1,9,2,2,1,1249.921372
4,2,6,18,2,1,0,0,3,1,1,1,603.4959074
4,2,6,19,2,4,0,1,2,1,1,1,790.8960599
4,2,6,20,1,4,1,0,5,1,1,1,955.8627349
4,2,6,21,1,4,1,1,8,2,2,1,1113.732566
4,2,6,22,2,1,0,0,6,2,2,1,841.7762243
4,2,6,23,2,1,1,1,7,2,2,1,684.8871145
4,2,6,24,2,3,0,1,9,2,2,1,1429.224082
4,2,6,25,1,3,1,0,10,2,2,1,1296.793051
4,2,6,26,2,3,1,0,8,2,2,1,801.6990619
4,2,6,27,2,2,0,1,4,1,1,1,933.398159
4,2,6,28,1,2,1,0,6,2,2,1,803.2110205
4,2,6,29,2,1,0,0,8,2,2,1,903.6136003
4,2,6,30,2,1,1,1,1,1,1,1,703.9513865
4,2,6,31,1,1,1,0,2,1,1,1,760.0596063
4,2,6,32,1,2,0,1,3,1,1,1,1734.011022
4,2,6,33,2,4,0,0,5,1,1,1,812.7601484
4,2,6,34,2,4,1,1,7,2,2,1,944.940469
4,2,6,35,1,2,0,0,4,1,1,1,1287.925843
4,2,6,36,2,2,1,0,9,2,2,1,905.0729802
4,2,6,37,2,3,0,1,1,1,1,1,737.0410303
4,2,6,38,1,3,1,0,10,2,2,1,1039.349076
4,2,6,39,1,3,1,1,9,2,2,1,954.5469847
4,2,6,40,1,4,0,1,2,1,1,1,1344.781707
4,2,6,41,2,4,1,0,4,1,1,1,999.0365912
4,2,6,42,2,4,1,1,1,1,1,1,1107.111175
4,2,6,43,1,1,0,0,8,2,2,1,922.7823886
4,2,6,44,1,1,1,1,5,1,1,1,713.5854739
4,2,6,45,2,1,1,0,6,2,2,1,626.1765689
4,2,6,46,1,2,0,0,7,2,2,1,1749.139264
4,2,6,47,1,2,1,1,3,1,1,1,1658.843018
4,2,6,48,1,3,0,1,10,2,2,1,1220.897281
4,2,7,1,1,1,99,99,10,2,2,1,1725.470828
4,2,7,2,2,3,0,0,4,1,1,1,1021.252059
4,2,7,3,1,3,1,0,5,1,1,1,928.1598444
4,2,7,4,1,4,0,1,3,1,1,1,759.0221385
4,2,7,5,2,2,0,0,1,1,1,1,1197.267318
4,2,7,6,2,2,1,1,8,2,2,1,673.3127443
4,2,7,7,1,1,0,0,9,2,2,1,514.4253227
4,2,7,8,1,4,0,1,7,2,2,1,826.7569866
4,2,7,9,1,1,0,1,8,2,2,1,662.0403811
4,2,7,10,2,4,0,0,2,1,1,1,616.3437083
4,2,7,11,2,3,0,1,1,1,1,1,1467.157701
4,2,7,12,2,3,1,1,4,1,1,1,717.0662488
4,2,7,13,1,3,1,0,10,2,2,1,859.9700622
4,2,7,14,2,2,0,0,3,1,1,1,869.2562965
4,2,7,15,2,2,1,1,5,1,1,1,1190.576676
4,2,7,16,1,2,1,0,6,2,2,1,619.5715284
4,2,7,17,1,4,0,1,7,2,2,1,782.4401845
4,2,7,18,2,1,0,0,4,1,1,1,595.7847902
4,2,7,19,2,4,0,1,1,1,1,1,1488.81436
4,2,7,20,1,4,1,0,5,1,1,1,657.7212322
4,2,7,21,1,4,1,1,9,2,2,1,715.035877
4,2,7,22,2,1,0,0,10,2,1,0,922.0613549
4,2,7,23,2,1,1,1,9,2,2,1,824.2556505
4,2,7,24,2,3,0,1,6,2,2,1,1387.909076
4,2,7,25,1,3,1,0,8,2,2,1,1080.588099
4,2,7,26,2,3,1,0,7,2,2,1,833.7454671
4,2,7,27,2,2,0,1,2,1,1,1,1132.620507
4,2,7,28,1,2,1,0,10,2,2,1,1235.375022
4,2,7,29,2,1,0,0,8,2,2,1,686.3144342
4,2,7,30,2,1,1,1,3,1,1,1,1439.567341
4,2,7,31,1,1,1,0,5,1,1,1,1177.542606
4,2,7,32,1,2,0,1,1,1,1,1,1207.434245
4,2,7,33,2,4,0,0,3,1,1,1,627.2169221
4,2,7,34,2,4,1,1,7,2,2,1,1052.975619
4,2,7,35,1,2,0,0,2,1,1,1,1159.692132
4,2,7,36,2,2,1,0,6,2,2,1,1005.597068
4,2,7,37,2,3,0,1,4,1,1,1,1217.463314
4,2,7,38,1,3,1,0,9,2,2,1,1004.831471
4,2,7,39,1,3,1,1,10,2,2,1,1345.434773
4,2,7,40,1,4,0,1,5,1,1,1,1023.43087
4,2,7,41,2,4,1,0,1,1,1,1,1131.059176
4,2,7,42,2,4,1,1,2,1,1,1,762.9030246
4,2,7,43,1,1,0,0,8,2,2,1,776.0989993
4,2,7,44,1,1,1,1,3,1,1,1,1294.157703
4,2,7,45,2,1,1,0,6,2,2,1,606.3399669
4,2,7,46,1,2,0,0,7,2,2,1,1057.731107
4,2,7,47,1,2,1,1,4,1,1,1,883.8452865
4,2,7,48,1,3,0,1,9,2,2,1,1284.237639
4,2,8,1,1,1,99,99,7,2,2,1,908.1462701
4,2,8,2,2,3,0,0,4,1,1,1,1188.606578
4,2,8,3,1,3,1,0,3,1,1,1,1041.538145
4,2,8,4,1,4,0,1,2,1,1,1,1043.454062
4,2,8,5,2,2,0,0,5,1,1,1,1070.041258
4,2,8,6,2,2,1,1,10,2,2,1,1567.031608
4,2,8,7,1,1,0,0,9,2,2,1,588.715518
4,2,8,8,1,4,0,1,8,2,2,1,825.1244817
4,2,8,9,1,1,0,1,7,2,2,1,860.7350184
4,2,8,10,2,4,0,0,4,1,1,1,991.0539243
4,2,8,11,2,3,0,1,3,1,1,1,1220.231712
4,2,8,12,2,3,1,1,2,1,1,1,863.1276704
4,2,8,13,1,3,1,0,6,2,2,1,1929.63814
4,2,8,14,2,2,0,0,5,1,1,1,984.6095053
4,2,8,15,2,2,1,1,1,1,1,1,1005.393807
4,2,8,16,1,2,1,0,8,2,2,1,793.6545188
4,2,8,17,1,4,0,1,9,2,2,1,1462.732432
4,2,8,18,2,1,0,0,4,1,1,1,656.833806
4,2,8,19,2,4,0,1,1,1,1,1,1410.746512
4,2,8,20,1,4,1,0,5,1,1,1,558.7164767
4,2,8,21,1,4,1,1,10,2,2,1,820.3850237
4,2,8,22,2,1,0,0,8,2,2,1,584.177398
4,2,8,23,2,1,1,1,9,2,2,1,533.0288898
4,2,8,24,2,3,0,1,6,2,2,1,1347.721306
4,2,8,25,1,3,1,0,10,2,2,1,1498.161508
4,2,8,26,2,3,1,0,7,2,2,1,849.9175893
4,2,8,27,2,2,0,1,3,1,1,1,891.4403458
4,2,8,28,1,2,1,0,9,2,2,1,1484.059192
4,2,8,29,2,1,0,0,10,2,2,1,724.667079
4,2,8,30,2,1,1,1,2,1,1,1,659.9904525
4,2,8,31,1,1,1,0,4,1,2,0,1766.924976
4,2,8,32,1,2,0,1,1,1,1,1,1267.067804
4,2,8,33,2,4,0,0,2,1,1,1,636.5211102
4,2,8,34,2,4,1,1,7,2,2,1,694.9421522
4,2,8,35,1,2,0,0,5,1,1,1,1407.981962
4,2,8,36,2,2,1,0,8,2,2,1,940.465187
4,2,8,37,2,3,0,1,3,1,1,1,1394.949173
4,2,8,38,1,3,1,0,6,2,2,1,1472.209745
4,2,8,39,1,3,1,1,10,2,2,1,936.956199
4,2,8,40,1,4,0,1,5,1,1,1,951.2595327
4,2,8,41,2,4,1,0,3,1,1,1,796.3459718
4,2,8,42,2,4,1,1,2,1,1,1,744.4123095
4,2,8,43,1,1,0,0,6,2,2,1,735.5983217
4,2,8,44,1,1,1,1,1,1,1,1,908.8862193
4,2,8,45,2,1,1,0,7,2,2,1,684.4770646
4,2,8,46,1,2,0,0,8,2,2,1,1571.95958
4,2,8,47,1,2,1,1,4,1,1,1,752.5790019
4,2,8,48,1,3,0,1,9,2,2,1,933.9396557
4,2,9,1,1,1,99,99,9,2,2,1,787.4101553
4,2,9,2,2,3,0,0,2,1,1,1,1095.705121
4,2,9,3,1,3,1,0,1,1,2,0,1016.934514
4,2,9,4,1,4,0,1,4,1,1,1,642.6301796
4,2,9,5,2,2,0,0,3,1,1,1,1060.69956
4,2,9,6,2,2,1,1,10,2,2,1,1110.422993
4,2,9,7,1,1,0,0,8,2,2,1,726.1973119
4,2,9,8,1,4,0,1,7,2,2,1,1373.25821
4,2,9,9,1,1,0,1,8,2,2,1,705.8054273
4,2,9,10,2,4,0,0,5,1,1,1,720.8326801
4,2,9,11,2,3,0,1,2,1,1,1,1183.970353
4,2,9,12,2,3,1,1,1,1,1,1,772.2328609
4,2,9,13,1,3,1,0,7,2,2,1,872.8736479
4,2,9,14,2,2,0,0,4,1,1,1,690.1892289
4,2,9,15,2,2,1,1,3,1,1,1,786.7535626
4,2,9,16,1,2,1,0,9,2,2,1,990.5807159
4,2,9,17,1,4,0,1,6,2,2,1,1130.000228
4,2,9,18,2,1,0,0,2,1,1,1,704.4922419
4,2,9,19,2,4,0,1,4,1,1,1,1120.109659
4,2,9,20,1,4,1,0,1,1,1,1,806.2737306
4,2,9,21,1,4,1,1,10,2,2,1,833.2597552
4,2,9,22,2,1,0,0,7,2,2,1,1210.681622
4,2,9,23,2,1,1,1,10,2,2,1,933.4853627
4,2,9,24,2,3,0,1,6,2,2,1,683.8922867
4,2,9,25,1,3,1,0,8,2,2,1,1492.129704
4,2,9,26,2,3,1,0,9,2,2,1,771.7029059
4,2,9,27,2,2,0,1,3,1,1,1,728.6101619
4,2,9,28,1,2,1,0,10,2,2,1,791.4163968
4,2,9,29,2,1,0,0,9,2,2,1,683.3745146
4,2,9,30,2,1,1,1,5,1,2,0,1179.516231
4,2,9,31,1,1,1,0,3,1,2,0,832.1472666
4,2,9,32,1,2,0,1,1,1,1,1,802.2809543
4,2,9,33,2,4,0,0,5,1,1,1,549.879085
4,2,9,34,2,4,1,1,8,2,2,1,914.4416093
4,2,9,35,1,2,0,0,4,1,1,1,890.1714034
4,2,9,36,2,2,1,0,7,2,2,1,562.2075109
4,2,9,37,2,3,0,1,2,1,1,1,999.2279906
4,2,9,38,1,3,1,0,6,2,2,1,697.5819883
4,2,9,39,1,3,1,1,9,2,2,1,737.6819135
4,2,9,40,1,4,0,1,1,1,1,1,551.8062231
4,2,9,41,2,4,1,0,5,1,1,1,629.4556853
4,2,9,42,2,4,1,1,4,1,1,1,712.5502503
4,2,9,43,1,1,0,0,8,2,2,1,1063.920647
4,2,9,44,1,1,1,1,3,1,1,1,785.5721446
4,2,9,45,2,1,1,0,10,2,2,1,629.3146205
4,2,9,46,1,2,0,0,7,2,2,1,767.6565892
4,2,9,47,1,2,1,1,2,1,1,1,892.4274791
4,2,9,48,1,3,0,1,6,2,2,1,916.9339685
4,2,10,1,1,1,99,99,8,2,2,1,1127.966008
4,2,10,2,2,3,0,0,5,1,1,1,646.0933214
4,2,10,3,1,3,1,0,4,1,1,1,1480.399842
4,2,10,4,1,4,0,1,2,1,1,1,545.5227462
4,2,10,5,2,2,0,0,1,1,1,1,975.0219051
4,2,10,6,2,2,1,1,10,2,2,1,1011.863874
4,2,10,7,1,1,0,0,6,2,2,1,679.7680637
4,2,10,8,1,4,0,1,7,2,1,0,607.9125193
4,2,10,9,1,1,0,1,10,2,2,1,1819.313251
4,2,10,10,2,4,0,0,5,1,1,1,637.5136937
4,2,10,11,2,3,0,1,4,1,1,1,1559.614162
4,2,10,12,2,3,1,1,1,1,1,1,845.4820618
4,2,10,13,1,3,1,0,9,2,2,1,886.8223958
4,2,10,14,2,2,0,0,3,1,1,1,1655.137181
4,2,10,15,2,2,1,1,2,1,1,1,752.9739835
4,2,10,16,1,2,1,0,7,2,2,1,1246.529404
4,2,10,17,1,4,0,1,8,2,2,1,1440.668288
4,2,10,18,2,1,0,0,5,1,1,1,1074.664658
4,2,10,19,2,4,0,1,1,1,1,1,1435.695111
4,2,10,20,1,4,1,0,3,1,1,1,1149.776877
4,2,10,21,1,4,1,1,6,2,2,1,691.2414443
4,2,10,22,2,1,0,0,9,2,2,1,1130.809427
4,2,10,23,2,1,1,1,7,2,1,0,1570.185048
4,2,10,24,2,3,0,1,10,2,2,1,1429.708191
4,2,10,25,1,3,1,0,6,2,2,1,976.3668301
4,2,10,26,2,3,1,0,8,2,2,1,781.4504864
4,2,10,27,2,2,0,1,4,1,1,1,769.4474715
4,2,10,28,1,2,1,0,6,2,2,1,2006.58869
4,2,10,29,2,1,0,0,8,2,2,1,585.3366945
4,2,10,30,2,1,1,1,2,1,1,1,524.9817818
4,2,10,31,1,1,1,0,1,1,2,0,3132.087667
4,2,10,32,1,2,0,1,4,1,1,1,1025.164044
4,2,10,33,2,4,0,0,3,1,1,1,1460.687954
4,2,10,34,2,4,1,1,9,2,2,1,1133.403096
4,2,10,35,1,2,0,0,5,1,1,1,723.6190313
4,2,10,36,2,2,1,0,10,2,2,1,778.6856155
4,2,10,37,2,3,0,1,2,1,1,1,870.9593339
4,2,10,38,1,3,1,0,7,2,2,1,903.0676153
4,2,10,39,1,3,1,1,6,2,2,1,1038.034287
4,2,10,40,1,4,0,1,5,1,1,1,623.8316865
4,2,10,41,2,4,1,0,4,1,1,1,938.5104771
4,2,10,42,2,4,1,1,2,1,1,1,831.0851124
4,2,10,43,1,1,0,0,8,2,2,1,672.4814235
4,2,10,44,1,1,1,1,1,1,1,1,1560.114301
4,2,10,45,2,1,1,0,10,2,2,1,572.0281886
4,2,10,46,1,2,0,0,9,2,2,1,2632.275379
4,2,10,47,1,2,1,1,3,1,1,1,769.0005524
4,2,10,48,1,3,0,1,7,2,2,1,1132.665712
5,1,1,1,2,3,99,99,10,2,2,1,4730.095831
5,1,1,2,2,3,1,1,8,2,2,1,1904.188119
5,1,1,3,2,3,1,1,1,1,1,1,1432.509611
5,1,1,4,1,4,0,0,7,2,2,1,1163.388672
5,1,1,5,2,1,0,0,4,1,1,1,2258.24548
5,1,1,6,2,2,0,1,5,1,1,1,4155.846512
5,1,1,7,1,2,1,0,9,2,2,1,1674.625289
5,1,1,8,1,2,1,1,8,2,2,1,1724.056332
5,1,1,9,1,4,0,1,3,1,1,1,1379.666721
5,1,1,10,2,1,0,0,1,1,2,0,4569.922475
5,1,1,11,2,4,0,1,2,1,1,1,1743.424535
5,1,1,12,2,4,1,1,6,2,2,1,1310.407411
5,1,1,13,1,4,1,0,4,1,1,1,910.4206201
5,1,1,14,1,1,0,1,7,2,2,1,926.9601521
5,1,1,15,1,1,1,1,3,1,1,1,1734.356631
5,1,1,16,2,2,0,0,5,1,1,1,3109.843024
5,1,1,17,2,3,0,1,10,2,2,1,1206.115289
5,1,1,18,1,3,1,0,1,1,1,1,1546.193445
5,1,1,19,1,2,0,1,5,1,1,1,1145.459652
5,1,1,20,1,2,1,1,9,2,2,1,1224.359141
5,1,1,21,2,2,1,0,4,1,1,1,1580.033939
5,1,1,22,1,1,0,0,7,2,2,1,1913.807779
5,1,1,23,1,3,0,1,10,2,2,1,1578.133411
5,1,1,24,2,1,0,0,9,2,2,1,823.8379062
5,1,1,25,2,1,1,1,8,2,2,1,1531.102393
5,1,1,26,2,1,1,1,2,1,1,1,1490.642752
5,1,1,27,1,4,0,0,3,1,1,1,2811.985895
5,1,1,28,2,3,0,0,6,2,2,1,1872.323495
5,1,1,29,1,3,1,0,1,1,1,1,1145.900482
5,1,1,30,1,3,1,1,2,1,1,1,2433.331634
5,1,1,31,2,4,0,0,4,1,1,1,3020.373931
5,1,1,32,2,2,0,1,9,2,2,1,3168.394551
5,1,1,33,1,2,1,0,10,2,2,1,1333.652973
5,1,1,34,1,4,0,1,8,2,2,1,1116.771872
5,1,1,35,2,4,1,0,5,1,1,1,2004.634301
5,1,1,36,1,1,0,0,3,1,1,1,2433.150494
5,1,1,37,1,3,0,1,7,2,2,1,1612.167227
5,1,1,38,2,1,0,0,6,2,2,1,2800.429158
5,1,1,39,1,1,1,0,10,2,2,1,892.9314653
5,1,1,40,1,1,1,1,7,2,2,1,717.8340904
5,1,1,41,1,4,0,1,9,2,2,1,1021.201725
5,1,1,42,2,4,1,0,5,1,1,1,1016.793769
5,1,1,43,2,4,1,1,8,2,2,1,1900.846165
5,1,1,44,2,2,0,1,2,1,1,1,1773.16453
5,1,1,45,1,2,1,0,4,1,1,1,906.4807432
5,1,1,46,2,2,1,0,1,1,1,1,1195.176672
5,1,1,47,1,3,0,0,6,2,2,1,1304.092515
5,1,1,48,2,3,1,0,3,1,1,1,1128.331815
5,1,2,1,2,3,99,99,9,2,2,1,1362.272465
5,1,2,2,2,3,1,1,6,2,2,1,1152.284946
5,1,2,3,2,3,1,1,1,1,1,1,1102.865123
5,1,2,4,1,4,0,0,10,2,2,1,950.8276819
5,1,2,5,2,1,0,0,5,1,1,1,973.1803678
5,1,2,6,2,2,0,1,4,1,1,1,1163.14213
5,1,2,7,1,2,1,0,7,2,2,1,1345.291785
5,1,2,8,1,2,1,1,8,2,2,1,775.7485814
5,1,2,9,1,4,0,1,2,1,1,1,909.7165783
5,1,2,10,2,1,0,0,3,1,1,1,1222.028686
5,1,2,11,2,4,0,1,2,1,1,1,1545.635277
5,1,2,12,2,4,1,1,10,2,2,1,1304.746864
5,1,2,13,1,4,1,0,5,1,1,1,864.9785052
5,1,2,14,1,1,0,1,7,2,2,1,1346.632221
5,1,2,15,1,1,1,1,4,1,1,1,649.4971519
5,1,2,16,2,2,0,0,1,1,1,1,1323.835822
5,1,2,17,2,3,0,1,6,2,2,1,1099.452316
5,1,2,18,1,3,1,0,3,1,1,1,995.4548267
5,1,2,19,1,2,0,1,5,1,1,1,1056.713837
5,1,2,20,1,2,1,1,9,2,2,1,866.6600623
5,1,2,21,2,2,1,0,4,1,1,1,1076.528959
5,1,2,22,1,1,0,0,7,2,2,1,1597.818368
5,1,2,23,1,3,0,1,9,2,2,1,1346.257758
5,1,2,24,2,1,0,0,8,2,2,1,905.2938749
5,1,2,25,2,1,1,1,10,2,2,1,1617.803088
5,1,2,26,2,1,1,1,2,1,1,1,1357.341287
5,1,2,27,1,4,0,0,1,1,1,1,2371.880263
5,1,2,28,2,3,0,0,6,2,2,1,2529.351586
5,1,2,29,1,3,1,0,5,1,1,1,1033.378827
5,1,2,30,1,3,1,1,2,1,1,1,1060.254244
5,1,2,31,2,4,0,0,4,1,1,1,3118.495428
5,1,2,32,2,2,0,1,10,2,2,1,3254.596069
5,1,2,33,1,2,1,0,6,2,2,1,777.0079057
5,1,2,34,1,4,0,1,9,2,2,1,1942.705874
5,1,2,35,2,4,1,0,1,1,1,1,2389.722721
5,1,2,36,1,1,0,0,3,1,1,1,706.4216242
5,1,2,37,1,3,0,1,8,2,2,1,1731.00057
5,1,2,38,2,1,0,0,7,2,2,1,874.4952524
5,1,2,39,1,1,1,0,10,2,2,1,2292.135347
5,1,2,40,1,1,1,1,6,2,2,1,845.3150282
5,1,2,41,1,4,0,1,9,2,1,0,1032.23556
5,1,2,42,2,4,1,0,4,1,1,1,930.873419
5,1,2,43,2,4,1,1,8,2,2,1,1122.451014
5,1,2,44,2,2,0,1,2,1,1,1,1417.761923
5,1,2,45,1,2,1,0,3,1,1,1,1389.804154
5,1,2,46,2,2,1,0,5,1,1,1,1338.311319
5,1,2,47,1,3,0,0,7,2,2,1,1313.969299
5,1,2,48,2,3,1,0,1,1,1,1,1625.790244
5,1,3,1,2,3,99,99,7,2,2,1,1301.14939
5,1,3,2,2,3,1,1,10,2,2,1,861.6471308
5,1,3,3,2,3,1,1,2,1,1,1,831.9020061
5,1,3,4,1,4,0,0,8,2,2,1,730.8348185
5,1,3,5,2,1,0,0,3,1,1,1,1634.105375
5,1,3,6,2,2,0,1,1,1,1,1,1677.298147
5,1,3,7,1,2,1,0,6,2,2,1,703.2322764
5,1,3,8,1,2,1,1,9,2,2,1,1151.297813
5,1,3,9,1,4,0,1,5,1,1,1,965.2954843
5,1,3,10,2,1,0,0,4,1,1,1,1147.17359
5,1,3,11,2,4,0,1,2,1,1,1,1250.204784
5,1,3,12,2,4,1,1,7,2,2,1,1140.221017
5,1,3,13,1,4,1,0,1,1,1,1,731.2298001
5,1,3,14,1,1,0,1,8,2,2,1,770.2140306
5,1,3,15,1,1,1,1,3,1,1,1,976.0372514
5,1,3,16,2,2,0,0,5,1,1,1,1325.459992
5,1,3,17,2,3,0,1,10,2,2,1,1357.196375
5,1,3,18,1,3,1,0,3,1,1,1,1003.342596
5,1,3,19,1,2,0,1,5,1,1,1,1047.649459
5,1,3,20,1,2,1,1,6,2,2,1,1130.742421
5,1,3,21,2,2,1,0,4,1,1,1,1034.231307
5,1,3,22,1,1,0,0,8,2,2,1,1101.310524
5,1,3,23,1,3,0,1,9,2,2,1,1037.647
5,1,3,24,2,1,0,0,7,2,2,1,1104.521032
5,1,3,25,2,1,1,1,6,2,2,1,872.3651733
5,1,3,26,2,1,1,1,2,1,1,1,1098.145222
5,1,3,27,1,4,0,0,1,1,1,1,914.5865213
5,1,3,28,2,3,0,0,10,2,2,1,1482.876812
5,1,3,29,1,3,1,0,4,1,1,1,867.6452719
5,1,3,30,1,3,1,1,2,1,1,1,1149.50148
5,1,3,31,2,4,0,0,1,1,1,1,1531.5538
5,1,3,32,2,2,0,1,7,2,2,1,850.6947283
5,1,3,33,1,2,1,0,6,2,2,1,764.7923317
5,1,3,34,1,4,0,1,9,2,2,1,930.2937707
5,1,3,35,2,4,1,0,3,1,1,1,1298.20915
5,1,3,36,1,1,0,0,5,1,1,1,1514.660324
5,1,3,37,1,3,0,1,8,2,2,1,1130.56064
5,1,3,38,2,1,0,0,10,2,2,1,778.5352532
5,1,3,39,1,1,1,0,6,2,2,1,1031.811404
5,1,3,40,1,1,1,1,9,2,2,1,1154.717032
5,1,3,41,1,4,0,1,7,2,2,1,1024.999255
5,1,3,42,2,4,1,0,4,1,1,1,1116.819321
5,1,3,43,2,4,1,1,8,2,2,1,884.2960528
5,1,3,44,2,2,0,1,1,1,1,1,917.3186908
5,1,3,45,1,2,1,0,5,1,1,1,732.7048895
5,1,3,46,2,2,1,0,3,1,1,1,1003.637229
5,1,3,47,1,3,0,0,10,2,2,1,823.926713
5,1,3,48,2,3,1,0,2,1,1,1,979.507767
5,1,4,1,2,3,99,99,7,2,2,1,1430.503925
5,1,4,2,2,3,1,1,10,2,2,1,881.6449956
5,1,4,3,2,3,1,1,5,1,1,1,1146.66223
5,1,4,4,1,4,0,0,9,2,2,1,1193.623036
5,1,4,5,2,1,0,0,2,1,1,1,590.4746607
5,1,4,6,2,2,0,1,3,1,1,1,1035.68171
5,1,4,7,1,2,1,0,6,2,2,1,934.3448965
5,1,4,8,1,2,1,1,7,2,2,1,1413.377371
5,1,4,9,1,4,0,1,4,1,1,1,881.6045997
5,1,4,10,2,1,0,0,2,1,1,1,938.8153695
5,1,4,11,2,4,0,1,4,1,1,1,833.325158
5,1,4,12,2,4,1,1,6,2,2,1,740.4490286
5,1,4,13,1,4,1,0,3,1,1,1,883.3534832
5,1,4,14,1,1,0,1,9,2,2,1,996.5035156
5,1,4,15,1,1,1,1,5,1,1,1,1161.195435
5,1,4,16,2,2,0,0,1,1,1,1,1591.766045
5,1,4,17,2,3,0,1,8,2,2,1,1252.759982
5,1,4,18,1,3,1,0,2,1,2,0,1342.896247
5,1,4,19,1,2,0,1,4,1,1,1,956.6799492
5,1,4,20,1,2,1,1,10,2,2,1,1371.102803
5,1,4,21,2,2,1,0,1,1,1,1,984.894841
5,1,4,22,1,1,0,0,7,2,2,1,1045.934559
5,1,4,23,1,3,0,1,9,2,2,1,1496.869483
5,1,4,24,2,1,0,0,6,2,2,1,1097.859886
5,1,4,25,2,1,1,1,10,2,2,1,946.1507412
5,1,4,26,2,1,1,1,3,1,1,1,936.8250729
5,1,4,27,1,4,0,0,5,1,1,1,1023.921391
5,1,4,28,2,3,0,0,8,2,2,1,1187.560774
5,1,4,29,1,3,1,0,1,1,1,1,1088.603147
5,1,4,30,1,3,1,1,4,1,1,1,1009.248724
5,1,4,31,2,4,0,0,2,1,1,1,2445.916862
5,1,4,32,2,2,0,1,6,2,2,1,1601.039776
5,1,4,33,1,2,1,0,7,2,2,1,1709.316659
5,1,4,34,1,4,0,1,9,2,2,1,1181.719728
5,1,4,35,2,4,1,0,3,1,1,1,1130.453879
5,1,4,36,1,1,0,0,5,1,1,1,1770.164979
5,1,4,37,1,3,0,1,10,2,2,1,991.5854823
5,1,4,38,2,1,0,0,8,2,2,1,2292.693194
5,1,4,39,1,1,1,0,9,2,2,1,893.6441633
5,1,4,40,1,1,1,1,10,2,2,1,838.6567678
5,1,4,41,1,4,0,1,6,2,2,1,705.379668
5,1,4,42,2,4,1,0,4,1,1,1,1746.219863
5,1,4,43,2,4,1,1,7,2,2,1,1800.384915
5,1,4,44,2,2,0,1,5,1,1,1,2571.990358
5,1,4,45,1,2,1,0,3,1,1,1,1282.088003
5,1,4,46,2,2,1,0,2,1,1,1,1594.60754
5,1,4,47,1,3,0,0,8,2,2,1,1919.726411
5,1,4,48,2,3,1,0,1,1,1,1,1943.401259
5,1,5,1,2,3,99,99,6,2,2,1,1414.386947
5,1,5,2,2,3,1,1,9,2,2,1,1794.510205
5,1,5,3,2,3,1,1,1,1,1,1,1207.402826
5,1,5,4,1,4,0,0,7,2,2,1,707.7325654
5,1,5,5,2,1,0,0,4,1,1,1,795.9910654
5,1,5,6,2,2,0,1,5,1,1,1,1249.171485
5,1,5,7,1,2,1,0,10,2,2,1,803.3819013
5,1,5,8,1,2,1,1,8,2,2,1,1239.696736
5,1,5,9,1,4,0,1,2,1,1,1,738.2734241
5,1,5,10,2,1,0,0,1,1,1,1,2721.745434
5,1,5,11,2,4,0,1,4,1,1,1,1089.129575
5,1,5,12,2,4,1,1,7,2,2,1,2882.423738
5,1,5,13,1,4,1,0,2,1,1,1,771.1267843
5,1,5,14,1,1,0,1,6,2,2,1,912.8389203
5,1,5,15,1,1,1,1,3,1,1,1,1033.349331
5,1,5,16,2,2,0,0,5,1,1,1,1683.924026
5,1,5,17,2,3,0,1,9,2,2,1,1549.38119
5,1,5,18,1,3,1,0,2,1,1,1,771.5615205
5,1,5,19,1,2,0,1,3,1,1,1,785.1806897
5,1,5,20,1,2,1,1,10,2,2,1,1101.9046
5,1,5,21,2,2,1,0,4,1,1,1,1054.414159
5,1,5,22,1,1,0,0,6,2,2,1,872.6101131
5,1,5,23,1,3,0,1,8,2,2,1,1082.398859
5,1,5,24,2,1,0,0,9,2,2,1,1787.111034
5,1,5,25,2,1,1,1,7,2,2,1,1247.381885
5,1,5,26,2,1,1,1,1,1,1,1,970.5905455
5,1,5,27,1,4,0,0,5,1,2,0,1536.383348
5,1,5,28,2,3,0,0,10,2,2,1,1406.239811
5,1,5,29,1,3,1,0,1,1,1,1,938.2998417
5,1,5,30,1,3,1,1,4,1,1,1,881.4606495
5,1,5,31,2,4,0,0,3,1,1,1,1682.243752
5,1,5,32,2,2,0,1,9,2,2,1,1155.488721
5,1,5,33,1,2,1,0,7,2,2,1,1001.437579
5,1,5,34,1,4,0,1,10,2,2,1,2157.804108
5,1,5,35,2,4,1,0,5,1,1,1,883.6144531
5,1,5,36,1,1,0,0,2,1,1,1,1092.373746
5,1,5,37,1,3,0,1,8,2,2,1,901.5255201
5,1,5,38,2,1,0,0,6,2,2,1,1181.112508
5,1,5,39,1,1,1,0,8,2,2,1,1154.793656
5,1,5,40,1,1,1,1,7,2,2,1,624.9066648
5,1,5,41,1,4,0,1,9,2,2,1,1699.871727
5,1,5,42,2,4,1,0,3,1,1,1,1140.390294
5,1,5,43,2,4,1,1,10,2,2,1,1747.30478
5,1,5,44,2,2,0,1,1,1,1,1,1530.206311
5,1,5,45,1,2,1,0,4,1,1,1,921.0466498
5,1,5,46,2,2,1,0,5,1,1,1,1704.86382
5,1,5,47,1,3,0,0,6,2,2,1,1064.603529
5,1,5,48,2,3,1,0,2,1,1,1,1914.34607
5,1,6,1,2,3,99,99,6,2,2,1,1723.198402
5,1,6,2,2,3,1,1,10,2,2,1,2226.189778
5,1,6,3,2,3,1,1,4,1,1,1,1381.245045
5,1,6,4,1,4,0,0,7,2,2,1,1465.500509
5,1,6,5,2,1,0,0,5,1,1,1,1315.36584
5,1,6,6,2,2,0,1,1,1,1,1,1738.76683
5,1,6,7,1,2,1,0,9,2,2,1,777.3304312
5,1,6,8,1,2,1,1,6,2,2,1,822.2066837
5,1,6,9,1,4,0,1,2,1,1,1,905.7978611
5,1,6,10,2,1,0,0,1,1,1,1,1297.91612
5,1,6,11,2,4,0,1,2,1,1,1,1306.350835
5,1,6,12,2,4,1,1,8,2,2,1,1257.781569
5,1,6,13,1,4,1,0,4,1,1,1,2435.856054
5,1,6,14,1,1,0,1,9,2,2,1,1014.146239
5,1,6,15,1,1,1,1,3,1,1,1,825.7938985
5,1,6,16,2,2,0,0,5,1,1,1,1276.673678
5,1,6,17,2,3,0,1,7,2,2,1,2157.860534
5,1,6,18,1,3,1,0,1,1,1,1,1171.313952
5,1,6,19,1,2,0,1,3,1,1,1,1159.99991
5,1,6,20,1,2,1,1,10,2,2,1,710.6090058
5,1,6,21,2,2,1,0,2,1,1,1,1102.892695
5,1,6,22,1,1,0,0,7,2,2,1,702.7045657
5,1,6,23,1,3,0,1,10,2,2,1,790.7854522
5,1,6,24,2,1,0,0,6,2,2,1,1131.327199
5,1,6,25,2,1,1,1,9,2,2,1,1050.549303
5,1,6,26,2,1,1,1,4,1,1,1,1276.734593
5,1,6,27,1,4,0,0,5,1,1,1,1062.228831
5,1,6,28,2,3,0,0,8,2,2,1,1200.744566
5,1,6,29,1,3,1,0,1,1,1,1,1101.05244
5,1,6,30,1,3,1,1,3,1,1,1,756.9084101
5,1,6,31,2,4,0,0,4,1,1,1,1043.33544
5,1,6,32,2,2,0,1,10,2,2,1,982.2267918
5,1,6,33,1,2,1,0,7,2,2,1,699.1272896
5,1,6,34,1,4,0,1,6,2,2,1,1139.693306
5,1,6,35,2,4,1,0,2,1,1,1,2658.816408
5,1,6,36,1,1,0,0,5,1,1,1,1196.919144
5,1,6,37,1,3,0,1,9,2,2,1,1017.767437
5,1,6,38,2,1,0,0,8,2,1,0,861.6868854
5,1,6,39,1,1,1,0,6,2,2,1,702.9578412
5,1,6,40,1,1,1,1,10,2,2,1,774.5258057
5,1,6,41,1,4,0,1,9,2,2,1,1035.443824
5,1,6,42,2,4,1,0,1,1,1,1,1213.736958
5,1,6,43,2,4,1,1,7,2,2,1,873.861743
5,1,6,44,2,2,0,1,5,1,1,1,1771.569536
5,1,6,45,1,2,1,0,4,1,1,1,1072.867685
5,1,6,46,2,2,1,0,3,1,1,1,1530.100191
5,1,6,47,1,3,0,0,8,2,2,1,745.8787426
5,1,6,48,2,3,1,0,2,1,1,1,919.8863915
5,1,7,1,2,3,99,99,6,2,2,1,1150.405898
5,1,7,2,2,3,1,1,9,2,2,1,1108.45097
5,1,7,3,2,3,1,1,2,1,1,1,1116.564443
5,1,7,4,1,4,0,0,8,2,2,1,851.9053211
5,1,7,5,2,1,0,0,1,1,2,0,1229.239343
5,1,7,6,2,2,0,1,3,1,1,1,1671.437544
5,1,7,7,1,2,1,0,7,2,2,1,745.1965017
5,1,7,8,1,2,1,1,8,2,2,1,663.8145921
5,1,7,9,1,4,0,1,4,1,1,1,801.244769
5,1,7,10,2,1,0,0,2,1,1,1,1349.930894
5,1,7,11,2,4,0,1,1,1,1,1,1131.287124
5,1,7,12,2,4,1,1,7,2,2,1,1010.265032
5,1,7,13,1,4,1,0,4,1,1,1,814.1009056
5,1,7,14,1,1,0,1,9,2,2,1,610.3728183
5,1,7,15,1,1,1,1,3,1,1,1,733.6689394
5,1,7,16,2,2,0,0,5,1,1,1,1252.016826
5,1,7,17,2,3,0,1,10,2,2,1,1238.453121
5,1,7,18,1,3,1,0,1,1,1,1,1240.813713
5,1,7,19,1,2,0,1,2,1,1,1,899.7349584
5,1,7,20,1,2,1,1,6,2,2,1,875.8353684
5,1,7,21,2,2,1,0,3,1,1,1,1181.327311
5,1,7,22,1,1,0,0,7,2,2,1,786.2694537
5,1,7,23,1,3,0,1,9,2,2,1,2046.513246
5,1,7,24,2,1,0,0,8,2,2,1,3249.150004
5,1,7,25,2,1,1,1,6,2,2,1,3475.756885
5,1,7,26,2,1,1,1,5,1,1,1,893.4142917
5,1,7,27,1,4,0,0,4,1,1,1,822.5625518
5,1,7,28,2,3,0,0,10,2,2,1,2074.158749
5,1,7,29,1,3,1,0,2,1,1,1,1227.285274
5,1,7,30,1,3,1,1,5,1,1,1,1094.243176
5,1,7,31,2,4,0,0,3,1,1,1,2335.114277
5,1,7,32,2,2,0,1,8,2,2,1,1526.33376
5,1,7,33,1,2,1,0,10,2,2,1,693.794718
5,1,7,34,1,4,0,1,9,2,2,1,734.768604
5,1,7,35,2,4,1,0,1,1,1,1,1789.014127
5,1,7,36,1,1,0,0,4,1,1,1,2329.325809
5,1,7,37,1,3,0,1,6,2,2,1,1121.269276
5,1,7,38,2,1,0,0,7,2,2,1,2104.945829
5,1,7,39,1,1,1,0,10,2,2,1,824.3960742
5,1,7,40,1,1,1,1,6,2,2,1,579.6908949
5,1,7,41,1,4,0,1,9,2,2,1,1201.052985
5,1,7,42,2,4,1,0,5,1,1,1,1612.471158
5,1,7,43,2,4,1,1,8,2,2,1,1576.951672
5,1,7,44,2,2,0,1,1,1,1,1,1901.895495
5,1,7,45,1,2,1,0,2,1,1,1,1173.445313
5,1,7,46,2,2,1,0,3,1,1,1,1027.098556
5,1,7,47,1,3,0,0,7,2,2,1,846.0171464
5,1,7,48,2,3,1,0,4,1,1,1,1168.769334
5,1,8,1,2,3,99,99,7,2,2,1,1403.604784
5,1,8,2,2,3,1,1,6,2,2,1,1375.817575
5,1,8,3,2,3,1,1,3,1,1,1,1084.660064
5,1,8,4,1,4,0,0,9,2,2,1,1085.442333
5,1,8,5,2,1,0,0,5,1,1,1,1550.412246
5,1,8,6,2,2,0,1,2,1,1,1,1340.291357
5,1,8,7,1,2,1,0,10,2,2,1,875.2781622
5,1,8,8,1,2,1,1,7,2,2,1,716.8748495
5,1,8,9,1,4,0,1,1,1,1,1,971.8309543
5,1,8,10,2,1,0,0,4,1,1,1,960.7134419
5,1,8,11,2,4,0,1,1,1,1,1,1358.244743
5,1,8,12,2,4,1,1,10,2,2,1,1516.942048
5,1,8,13,1,4,1,0,3,1,1,1,867.2371457
5,1,8,14,1,1,0,1,8,2,2,1,1196.365144
5,1,8,15,1,1,1,1,5,1,1,1,689.2226141
5,1,8,16,2,2,0,0,2,1,1,1,1144.922323
5,1,8,17,2,3,0,1,9,2,2,1,1392.120182
5,1,8,18,1,3,1,0,1,1,1,1,828.6921398
5,1,8,19,1,2,0,1,5,1,1,1,647.6719653
5,1,8,20,1,2,1,1,6,2,2,1,802.8468167
5,1,8,21,2,2,1,0,3,1,1,1,870.0574807
5,1,8,22,1,1,0,0,7,2,2,1,711.8523
5,1,8,23,1,3,0,1,8,2,2,1,831.9234864
5,1,8,24,2,1,0,0,9,2,2,1,1098.233067
5,1,8,25,2,1,1,1,10,2,2,1,1250.51673
5,1,8,26,2,1,1,1,4,1,2,0,1036.141453
5,1,8,27,1,4,0,0,2,1,1,1,2102.876985
5,1,8,28,2,3,0,0,6,2,2,1,1174.808513
5,1,8,29,1,3,1,0,1,1,1,1,708.1035018
5,1,8,30,1,3,1,1,2,1,1,1,708.3308086
5,1,8,31,2,4,0,0,3,1,1,1,1740.379779
5,1,8,32,2,2,0,1,7,2,2,1,1946.666269
5,1,8,33,1,2,1,0,9,2,2,1,720.5745956
5,1,8,34,1,4,0,1,8,2,2,1,1103.917018
5,1,8,35,2,4,1,0,5,1,1,1,1064.183541
5,1,8,36,1,1,0,0,4,1,1,1,969.6816391
5,1,8,37,1,3,0,1,6,2,2,1,734.7310935
5,1,8,38,2,1,0,0,10,2,2,1,1493.359854
5,1,8,39,1,1,1,0,8,2,2,1,989.7417006
5,1,8,40,1,1,1,1,9,2,2,1,1458.169626
5,1,8,41,1,4,0,1,10,2,2,1,1427.81119
5,1,8,42,2,4,1,0,3,1,1,1,2302.776124
5,1,8,43,2,4,1,1,7,2,2,1,1063.298679
5,1,8,44,2,2,0,1,4,1,1,1,1672.733096
5,1,8,45,1,2,1,0,1,1,1,1,914.2809877
5,1,8,46,2,2,1,0,2,1,1,1,1353.970158
5,1,8,47,1,3,0,0,6,2,2,1,991.952892
5,1,8,48,2,3,1,0,5,1,1,1,1740.611894
5,1,9,1,2,3,99,99,8,2,2,1,1891.629821
5,1,9,2,2,3,1,1,7,2,2,1,1619.680212
5,1,9,3,2,3,1,1,4,1,1,1,982.9077503
5,1,9,4,1,4,0,0,10,2,2,1,675.918276
5,1,9,5,2,1,0,0,3,1,1,1,973.693972
5,1,9,6,2,2,0,1,2,1,1,1,1099.295862
5,1,9,7,1,2,1,0,6,2,2,1,715.3401282
5,1,9,8,1,2,1,1,8,2,2,1,866.4077486
5,1,9,9,1,4,0,1,5,1,1,1,931.1603577
5,1,9,10,2,1,0,0,3,1,1,1,881.4568022
5,1,9,11,2,4,0,1,1,1,1,1,1385.97745
5,1,9,12,2,4,1,1,6,2,2,1,1093.960084
5,1,9,13,1,4,1,0,4,1,1,1,830.4115278
5,1,9,14,1,1,0,1,9,2,2,1,801.7987691
5,1,9,15,1,1,1,1,2,1,1,1,830.5301505
5,1,9,16,2,2,0,0,5,1,1,1,2017.105394
5,1,9,17,2,3,0,1,10,2,2,1,2109.164309
5,1,9,18,1,3,1,0,4,1,1,1,669.0747076
5,1,9,19,1,2,0,1,1,1,1,1,782.9008894
5,1,9,20,1,2,1,1,7,2,2,1,699.0314296
5,1,9,21,2,2,1,0,5,1,1,1,1090.572605
5,1,9,22,1,1,0,0,9,2,2,1,707.084629
5,1,9,23,1,3,0,1,8,2,2,1,1354.728381
5,1,9,24,2,1,0,0,6,2,2,1,1096.443787
5,1,9,25,2,1,1,1,7,2,2,1,832.6185514
5,1,9,26,2,1,1,1,2,1,1,1,730.8543752
5,1,9,27,1,4,0,0,3,1,1,1,1120.838066
5,1,9,28,2,3,0,0,10,2,2,1,1527.309993
5,1,9,29,1,3,1,0,4,1,1,1,878.4485945
5,1,9,30,1,3,1,1,2,1,1,1,830.6337049
5,1,9,31,2,4,0,0,3,1,1,1,864.8563559
5,1,9,32,2,2,0,1,9,2,2,1,1073.645786
5,1,9,33,1,2,1,0,6,2,2,1,946.678452
5,1,9,34,1,4,0,1,8,2,2,1,809.0446929
5,1,9,35,2,4,1,0,5,1,1,1,764.5788108
5,1,9,36,1,1,0,0,1,1,1,1,865.9079302
5,1,9,37,1,3,0,1,7,2,2,1,1139.084803
5,1,9,38,2,1,0,0,10,2,2,1,1458.129871
5,1,9,39,1,1,1,0,7,2,2,1,747.7087383
5,1,9,40,1,1,1,1,8,2,2,1,753.8844929
5,1,9,41,1,4,0,1,9,2,2,1,887.5828636
5,1,9,42,2,4,1,0,3,1,1,1,999.1375809
5,1,9,43,2,4,1,1,6,2,2,1,2714.529326
5,1,9,44,2,2,0,1,2,1,1,1,1161.185817
5,1,9,45,1,2,1,0,5,1,1,1,870.8618709
5,1,9,46,2,2,1,0,4,1,1,1,1335.120368
5,1,9,47,1,3,0,0,10,2,2,1,796.6460552
5,1,9,48,2,3,1,0,1,1,1,1,1201.045932
5,1,10,1,2,3,99,99,6,2,2,1,1529.789849
5,1,10,2,2,3,1,1,7,2,2,1,1160.562887
5,1,10,3,2,3,1,1,1,1,1,1,1566.471516
5,1,10,4,1,4,0,0,9,2,2,1,778.5179407
5,1,10,5,2,1,0,0,5,1,1,1,807.5846718
5,1,10,6,2,2,0,1,3,1,1,1,1467.248751
5,1,10,7,1,2,1,0,8,2,2,1,1068.241399
5,1,10,8,1,2,1,1,9,2,2,1,620.9013851
5,1,10,9,1,4,0,1,4,1,1,1,1048.153125
5,1,10,10,2,1,0,0,3,1,1,1,1112.993899
5,1,10,11,2,4,0,1,1,1,1,1,1904.134578
5,1,10,12,2,4,1,1,10,2,2,1,1167.104449
5,1,10,13,1,4,1,0,2,1,1,1,900.0584457
5,1,10,14,1,1,0,1,8,2,2,1,931.3838173
5,1,10,15,1,1,1,1,5,1,1,1,1657.715141
5,1,10,16,2,2,0,0,4,1,1,1,2115.469908
5,1,10,17,2,3,0,1,7,2,2,1,1722.751162
5,1,10,18,1,3,1,0,1,1,1,1,936.7869213
5,1,10,19,1,2,0,1,4,1,1,1,943.3993356
5,1,10,20,1,2,1,1,6,2,2,1,1005.222926
5,1,10,21,2,2,1,0,3,1,1,1,1009.109903
5,1,10,22,1,1,0,0,10,2,2,1,836.5645197
5,1,10,23,1,3,0,1,6,2,2,1,806.7353973
5,1,10,24,2,1,0,0,8,2,2,1,929.8090207
5,1,10,25,2,1,1,1,9,2,2,1,2488.06864
5,1,10,26,2,1,1,1,5,1,1,1,1023.696328
5,1,10,27,1,4,0,0,2,1,1,1,1074.275448
5,1,10,28,2,3,0,0,7,2,2,1,1547.295034
5,1,10,29,1,3,1,0,1,1,1,1,792.8466019
5,1,10,30,1,3,1,1,3,1,1,1,1829.12367
5,1,10,31,2,4,0,0,5,1,1,1,1160.063389
5,1,10,32,2,2,0,1,6,2,2,1,1613.741383
5,1,10,33,1,2,1,0,10,2,2,1,1001.284652
5,1,10,34,1,4,0,1,9,2,2,1,669.03335
5,1,10,35,2,4,1,0,4,1,1,1,1189.604932
5,1,10,36,1,1,0,0,2,1,2,0,538.2402738
5,1,10,37,1,3,0,1,7,2,2,1,1016.259647
5,1,10,38,2,1,0,0,8,2,2,1,1258.497153
5,1,10,39,1,1,1,0,6,2,2,1,683.4498561
5,1,10,40,1,1,1,1,10,2,2,1,643.3582666
5,1,10,41,1,4,0,1,9,2,2,1,789.8444856
5,1,10,42,2,4,1,0,5,1,1,1,1169.440354
5,1,10,43,2,4,1,1,8,2,2,1,781.4610663
5,1,10,44,2,2,0,1,2,1,1,1,1154.086408
5,1,10,45,1,2,1,0,3,1,1,1,743.6213845
5,1,10,46,2,2,1,0,1,1,1,1,773.9189063
5,1,10,47,1,3,0,0,7,2,2,1,602.5401931
5,1,10,48,2,3,1,0,4,1,1,1,1141.442189
6,2,1,1,1,1,99,99,1,1,1,1,1806.657812
6,2,1,2,2,1,1,0,3,1,1,1,1496.453021
6,2,1,3,2,1,1,1,4,1,1,1,2009.575417
6,2,1,4,2,2,0,1,2,1,1,1,2606.160109
6,2,1,5,1,2,1,0,3,1,1,1,1538.643912
6,2,1,6,1,2,1,1,6,2,2,1,1465.769494
6,2,1,7,2,4,0,0,9,2,2,1,3667.56307
6,2,1,8,2,3,0,1,7,2,2,1,2085.039657
6,2,1,9,1,3,1,0,5,1,1,1,1790.603992
6,2,1,10,1,3,1,1,4,1,1,1,1130.303517
6,2,1,11,2,4,0,0,1,1,99,99,99000
6,2,1,12,1,4,1,0,10,2,2,1,1470.958116
6,2,1,13,2,2,0,0,8,2,2,1,4144.567737
6,2,1,14,2,2,1,1,2,1,1,1,2016.190717
6,2,1,15,1,2,1,0,4,1,1,1,1195.290807
6,2,1,16,1,3,0,1,9,2,2,1,2888.434382
6,2,1,17,1,1,0,1,6,2,2,1,2865.98776
6,2,1,18,2,4,0,0,10,2,99,99,99000
6,2,1,19,2,3,0,1,7,2,2,1,2367.804771
6,2,1,20,2,3,1,1,9,2,2,1,3934.009547
6,2,1,21,1,1,0,0,7,2,2,1,1629.407595
6,2,1,22,1,1,1,1,2,1,1,1,1200.75194
6,2,1,23,2,1,1,0,3,1,1,1,3421.113175
6,2,1,24,2,4,0,1,5,1,1,1,4985.497252
6,2,1,25,1,4,1,0,10,2,2,1,1045.999962
6,2,1,26,2,3,0,0,1,1,1,1,4433.381969
6,2,1,27,2,2,0,1,2,1,1,1,1532.646091
6,2,1,28,1,2,1,0,4,1,1,1,1371.678284
6,2,1,29,2,4,0,0,6,2,99,99,99000
6,2,1,30,1,3,0,0,5,1,1,1,1406.26065
6,2,1,31,1,3,1,1,1,1,1,1,873.9239398
6,2,1,32,2,3,1,0,8,2,1,0,4235.911069
6,2,1,33,2,1,0,1,9,2,99,99,99000
6,2,1,34,2,1,1,1,3,1,1,1,1274.675367
6,2,1,35,1,1,1,0,6,2,2,1,932.119278
6,2,1,36,1,4,0,1,10,2,2,1,2923.638396
6,2,1,37,2,2,0,0,5,1,1,1,2555.109064
6,2,1,38,2,2,1,1,7,2,2,1,3433.845559
6,2,1,39,1,2,1,0,8,2,2,1,3621.243467
6,2,1,40,2,4,0,0,4,1,1,1,4400.870049
6,2,1,41,2,3,0,1,7,2,2,1,4598.136405
6,2,1,42,1,4,0,0,10,2,2,1,1194.371641
6,2,1,43,1,4,1,1,6,2,2,1,831.2220094
6,2,1,44,1,4,1,1,1,1,1,1,1098.058659
6,2,1,45,2,1,0,0,2,1,1,1,4522.635617
6,2,1,46,1,1,1,0,9,2,2,1,2130.373408
6,2,1,47,1,3,0,1,3,1,1,1,2449.976965
6,2,1,48,1,2,0,1,8,2,2,1,1148.912855
6,2,2,1,1,1,99,99,3,1,1,1,1107.239736
6,2,2,2,2,1,1,0,5,1,1,1,1067.691887
6,2,2,3,2,1,1,1,2,1,1,1,3781.401434
6,2,2,4,2,2,0,1,1,1,1,1,3250.507433
6,2,2,5,1,2,1,0,4,1,1,1,3781.121228
6,2,2,6,1,2,1,1,8,2,2,1,3698.670111
6,2,2,7,2,4,0,0,6,2,2,1,4531.227748
6,2,2,8,2,3,0,1,7,2,2,1,3698.979813
6,2,2,9,1,3,1,0,3,1,1,1,2603.256738
6,2,2,10,1,3,1,1,5,1,1,1,2351.889772
6,2,2,11,2,4,0,0,2,1,1,1,1478.181277
6,2,2,12,1,4,1,0,10,2,2,1,4095.818293
6,2,2,13,2,2,0,0,8,2,2,1,1441.419459
6,2,2,14,2,2,1,1,1,1,1,1,1396.073204
6,2,2,15,1,2,1,0,2,1,1,1,976.9391046
6,2,2,16,1,3,0,1,7,2,2,1,3662.640869
6,2,2,17,1,1,0,1,6,2,2,1,4169.350906
6,2,2,18,2,4,0,0,10,2,2,1,1103.453107
6,2,2,19,2,3,0,1,9,2,1,0,959.1585226
6,2,2,20,2,3,1,1,7,2,2,1,853.3457855
6,2,2,21,1,1,0,0,6,2,99,99,99000
6,2,2,22,1,1,1,1,3,1,1,1,3244.583992
6,2,2,23,2,1,1,0,4,1,1,1,1135.728743
6,2,2,24,2,4,0,1,5,1,1,1,2870.373274
6,2,2,25,1,4,1,0,9,2,1,0,888.0333093
6,2,2,26,2,3,0,0,1,1,1,1,2344.37326
6,2,2,27,2,2,0,1,4,1,1,1,2183.22303
6,2,2,28,1,2,1,0,1,1,1,1,3396.533909
6,2,2,29,2,4,0,0,10,2,1,0,4361.807271
6,2,2,30,1,3,0,0,3,1,1,1,2151.199067
6,2,2,31,1,3,1,1,2,1,1,1,1749.853244
6,2,2,32,2,3,1,0,8,2,2,1,4884.411469
6,2,2,33,2,1,0,1,7,2,1,0,4989.977343
6,2,2,34,2,1,1,1,5,1,1,1,3315.521332
6,2,2,35,1,1,1,0,10,2,2,1,3867.03164
6,2,2,36,1,4,0,1,6,2,2,1,924.7188241
6,2,2,37,2,2,0,0,2,1,1,1,1676.434766
6,2,2,38,2,2,1,1,9,2,99,99,99000
6,2,2,39,1,2,1,0,8,2,2,1,1169.953958
6,2,2,40,2,4,0,0,1,1,1,1,1095.235759
6,2,2,41,2,3,0,1,9,2,99,99,99000
6,2,2,42,1,4,0,0,7,2,2,1,3413.281832
6,2,2,43,1,4,1,1,6,2,2,1,1249.521902
6,2,2,44,1,4,1,1,3,1,1,1,1579.640881
6,2,2,45,2,1,0,0,4,1,99,99,99000
6,2,2,46,1,1,1,0,8,2,2,1,3429.330843
6,2,2,47,1,3,0,1,5,1,1,1,2417.291921
6,2,2,48,1,2,0,1,10,2,2,1,2797.035907
6,2,3,1,1,1,99,99,1,1,1,1,1507.153751
6,2,3,2,2,1,1,0,4,1,1,1,2300.007727
6,2,3,3,2,1,1,1,3,1,1,1,3172.445676
6,2,3,4,2,2,0,1,2,1,1,1,3522.371441
6,2,3,5,1,2,1,0,5,1,1,1,2458.252982
6,2,3,6,1,2,1,1,9,2,2,1,1708.366395
6,2,3,7,2,4,0,0,7,2,2,1,4373.195372
6,2,3,8,2,3,0,1,10,2,2,1,3362.799534
6,2,3,9,1,3,1,0,4,1,1,1,1593.242096
6,2,3,10,1,3,1,1,3,1,1,1,1278.094586
6,2,3,11,2,4,0,0,1,1,1,1,4544.478225
6,2,3,12,1,4,1,0,6,2,2,1,1111.16198
6,2,3,13,2,2,0,0,8,2,2,1,3863.765989
6,2,3,14,2,2,1,1,2,1,1,1,2130.806862
6,2,3,15,1,2,1,0,5,1,1,1,2657.974828
6,2,3,16,1,3,0,1,9,2,2,1,2308.839989
6,2,3,17,1,1,0,1,7,2,2,1,1253.215557
6,2,3,18,2,4,0,0,10,2,2,1,3950.609352
6,2,3,19,2,3,0,1,6,2,2,1,4629.761539
6,2,3,20,2,3,1,1,10,2,99,99,99000
6,2,3,21,1,1,0,0,6,2,2,1,652.766009
6,2,3,22,1,1,1,1,1,1,1,1,1071.473708
6,2,3,23,2,1,1,0,3,1,1,1,1055.996971
6,2,3,24,2,4,0,1,4,1,1,1,1314.438339
6,2,3,25,1,4,1,0,9,2,99,99,99000
6,2,3,26,2,3,0,0,2,1,1,1,2830.841134
6,2,3,27,2,2,0,1,4,1,1,1,2065.805145
6,2,3,28,1,2,1,0,1,1,1,1,3107.643374
6,2,3,29,2,4,0,0,8,2,2,1,3012.647745
6,2,3,30,1,3,0,0,5,1,1,1,1376.553998
6,2,3,31,1,3,1,1,3,1,1,1,1006.504051
6,2,3,32,2,3,1,0,7,2,2,1,2058.538703
6,2,3,33,2,1,0,1,10,2,2,1,4941.255471
6,2,3,34,2,1,1,1,2,1,1,1,1099.712324
6,2,3,35,1,1,1,0,9,2,2,1,1316.192673
6,2,3,36,1,4,0,1,6,2,2,1,3092.050259
6,2,3,37,2,2,0,0,1,1,1,1,3396.950371
6,2,3,38,2,2,1,1,8,2,2,1,4690.390887
6,2,3,39,1,2,1,0,7,2,2,1,891.3906525
6,2,3,40,2,4,0,0,4,1,1,1,3228.546522
6,2,3,41,2,3,0,1,8,2,2,1,3840.522671
6,2,3,42,1,4,0,0,7,2,2,1,3219.697268
6,2,3,43,1,4,1,1,10,2,2,1,1007.864044
6,2,3,44,1,4,1,1,5,1,1,1,1123.74849
6,2,3,45,2,1,0,0,2,1,1,1,4340.04834
6,2,3,46,1,1,1,0,6,2,2,1,938.6121079
6,2,3,47,1,3,0,1,3,1,1,1,1393.805907
6,2,3,48,1,2,0,1,9,2,2,1,3759.303627
6,2,4,1,1,1,99,99,2,1,1,1,1322.306551
6,2,4,2,2,1,1,0,4,1,1,1,1650.201194
6,2,4,3,2,1,1,1,3,1,1,1,1332.241043
6,2,4,4,2,2,0,1,5,1,1,1,4051.862489
6,2,4,5,1,2,1,0,4,1,1,1,1405.616881
6,2,4,6,1,2,1,1,9,2,2,1,826.1488048
6,2,4,7,2,4,0,0,7,2,1,0,1445.703662
6,2,4,8,2,3,0,1,6,2,2,1,2927.97646
6,2,4,9,1,3,1,0,1,1,1,1,991.614657
6,2,4,10,1,3,1,1,2,1,1,1,812.588947
6,2,4,11,2,4,0,0,5,1,1,1,3889.282054
6,2,4,12,1,4,1,0,10,2,2,1,1394.54233
6,2,4,13,2,2,0,0,7,2,2,1,2223.268133
6,2,4,14,2,2,1,1,3,1,1,1,2011.466327
6,2,4,15,1,2,1,0,4,1,1,1,815.1627391
6,2,4,16,1,3,0,1,9,2,2,1,1602.838673
6,2,4,17,1,1,0,1,8,2,2,1,1943.032246
6,2,4,18,2,4,0,0,6,2,2,1,2573.800797
6,2,4,19,2,3,0,1,10,2,1,0,4307.642861
6,2,4,20,2,3,1,1,9,2,2,1,1987.831234
6,2,4,21,1,1,0,0,7,2,2,1,1344.952908
6,2,4,22,1,1,1,1,2,1,1,1,1087.850694
6,2,4,23,2,1,1,0,3,1,1,1,1769.134885
6,2,4,24,2,4,0,1,1,1,1,1,4062.517693
6,2,4,25,1,4,1,0,10,2,2,1,1048.920004
6,2,4,26,2,3,0,0,5,1,1,1,1331.215437
6,2,4,27,2,2,0,1,1,1,1,1,2994.278538
6,2,4,28,1,2,1,0,5,1,1,1,1399.124693
6,2,4,29,2,4,0,0,6,2,2,1,2251.359913
6,2,4,30,1,3,0,0,3,1,1,1,1245.767333
6,2,4,31,1,3,1,1,2,1,1,1,912.657139
6,2,4,32,2,3,1,0,8,2,2,1,4969.330259
6,2,4,33,2,1,0,1,10,2,2,1,2951.288387
6,2,4,34,2,1,1,1,4,1,1,1,1261.851931
6,2,4,35,1,1,1,0,6,2,2,1,864.1173685
6,2,4,36,1,4,0,1,7,2,2,1,2594.242374
6,2,4,37,2,2,0,0,3,1,1,1,2535.418336
6,2,4,38,2,2,1,1,9,2,2,1,1605.69716
6,2,4,39,1,2,1,0,8,2,2,1,1138.346778
6,2,4,40,2,4,0,0,1,1,2,0,4113.820732
6,2,4,41,2,3,0,1,10,2,99,99,99000
6,2,4,42,1,4,0,0,6,2,2,1,821.5712507
6,2,4,43,1,4,1,1,7,2,2,1,921.3050549
6,2,4,44,1,4,1,1,5,1,1,1,936.5047915
6,2,4,45,2,1,0,0,2,1,1,1,4383.455915
6,2,4,46,1,1,1,0,9,2,2,1,1092.105402
6,2,4,47,1,3,0,1,4,1,1,1,1245.432625
6,2,4,48,1,2,0,1,8,2,2,1,991.8361929
6,2,5,1,1,1,99,99,3,1,1,1,1157.752811
6,2,5,2,2,1,1,0,5,1,1,1,1059.933321
6,2,5,3,2,1,1,1,4,1,1,1,3998.896488
6,2,5,4,2,2,0,1,2,1,1,1,2354.854698
6,2,5,5,1,2,1,0,3,1,1,1,1689.828552
6,2,5,6,1,2,1,1,9,2,2,1,1490.370241
6,2,5,7,2,4,0,0,7,2,2,1,3635.869327
6,2,5,8,2,3,0,1,6,2,99,99,99000
6,2,5,9,1,3,1,0,1,1,1,1,923.1126086
6,2,5,10,1,3,1,1,5,1,1,1,922.6788341
6,2,5,11,2,4,0,0,2,1,1,1,3738.689886
6,2,5,12,1,4,1,0,8,2,2,1,1185.725969
6,2,5,13,2,2,0,0,7,2,2,1,2575.049862
6,2,5,14,2,2,1,1,4,1,1,1,2084.310608
6,2,5,15,1,2,1,0,2,1,1,1,1373.430373
6,2,5,16,1,3,0,1,8,2,2,1,1427.140811
6,2,5,17,1,1,0,1,9,2,2,1,1175.084871
6,2,5,18,2,4,0,0,6,2,2,1,3003.760981
6,2,5,19,2,3,0,1,10,2,2,1,2136.102564
6,2,5,20,2,3,1,1,9,2,2,1,1855.010351
6,2,5,21,1,1,0,0,8,2,2,1,904.9469837
6,2,5,22,1,1,1,1,1,1,1,1,825.2251507
6,2,5,23,2,1,1,0,4,1,1,1,1852.851417
6,2,5,24,2,4,0,1,5,1,1,1,1903.800832
6,2,5,25,1,4,1,0,7,2,2,1,767.8056691
6,2,5,26,2,3,0,0,3,1,1,1,3333.580197
6,2,5,27,2,2,0,1,4,1,1,1,2709.132634
6,2,5,28,1,2,1,0,5,1,1,1,797.2949534
6,2,5,29,2,4,0,0,6,2,1,0,3602.148738
6,2,5,30,1,3,0,0,2,1,1,1,1062.566104
6,2,5,31,1,3,1,1,1,1,1,1,1024.441407
6,2,5,32,2,3,1,0,10,2,99,99,99000
6,2,5,33,2,1,0,1,6,2,2,1,991.8775506
6,2,5,34,2,1,1,1,3,1,1,1,3085.003108
6,2,5,35,1,1,1,0,9,2,2,1,1149.790984
6,2,5,36,1,4,0,1,8,2,1,0,1123.954958
6,2,5,37,2,2,0,0,1,1,2,0,3138.359602
6,2,5,38,2,2,1,1,10,2,99,99,99000
6,2,5,39,1,2,1,0,7,2,2,1,1045.061881
6,2,5,40,2,4,0,0,4,1,1,1,2496.555934
6,2,5,41,2,3,0,1,9,2,99,99,99000
6,2,5,42,1,4,0,0,6,2,2,1,2054.037131
6,2,5,43,1,4,1,1,10,2,2,1,824.2918786
6,2,5,44,1,4,1,1,2,1,1,1,1987.591103